{"creationDateTime": "2023-08-04T11:25:20", "datasetJSONVersion": "1.0.0", "fileOID": "UpdatedCDISCPILOT.CDISC SDTM.3.2.LBUR", "clinicalData": {"studyOID": "UpdatedCDISCPILOT.CDISC SDTM.3.2", "metaDataVersionOID": "MDV.UpdatedCDISCPILOT.CDISC SDTM.3.2", "itemGroupData": {"LBUR": {"records": 4913, "name": "LBUR", "label": "Laboratory Tests Results", "items": [{"OID": "ITEMGROUPDATASEQ", "name": "ITEMGROUPDATASEQ", "label": "Record identifier", "type": "integer"}, {"OID": "IT.LBUR.STUDYID", "name": "STUDYID", "label": "Study Identifier", "type": "string", "length": 12, "keySequence": 1}, {"OID": "IT.LBUR.DOMAIN", "name": "DOMAIN", "label": "Domain Abbreviation", "type": "string", "length": 2}, {"OID": "IT.LBUR.USUBJID", "name": "USUBJID", "label": "Unique Subject Identifier", "type": "string", "length": 11, "keySequence": 2}, {"OID": "IT.LBUR.LBSEQ", "name": "LBSEQ", "label": "Sequence Number", "type": "integer", "length": 8}, {"OID": "IT.LBUR.LBTESTCD", "name": "LBTESTCD", "label": "Lab Test or Examination Short Name", "type": "string", "length": 7, "keySequence": 3}, {"OID": "IT.LBUR.LBTEST", "name": "LBTEST", "label": "Lab Test or Examination Name", "type": "string", "length": 200}, {"OID": "IT.LBUR.LBCAT", "name": "LBCAT", "label": "Category for Lab Test", "type": "string", "length": 10}, {"OID": "IT.LBUR.LBORRES", "name": "LBORRES", "label": "Result or Finding in Original Units", "type": "string", "length": 5}, {"OID": "IT.LBUR.LBORRESU", "name": "LBORRESU", "label": "Original Units", "type": "string", "length": 8}, {"OID": "IT.LBUR.LBORNRLO", "name": "LBORNRLO", "label": "Reference Range Lower Limit in Orig Unit", "type": "string", "length": 5}, {"OID": "IT.LBUR.LBORNRHI", "name": "LBORNRHI", "label": "Reference Range Upper Limit in Orig Unit", "type": "string", "length": 7}, {"OID": "IT.LBUR.LBSTRESC", "name": "LBSTRESC", "label": "Character Result/Finding in Std Format", "type": "string", "length": 8}, {"OID": "IT.LBUR.LBSTRESN", "name": "LBSTRESN", "label": "Numeric Result/Finding in Standard Units", "type": "integer", "length": 8}, {"OID": "IT.LBUR.LBSTRESU", "name": "LBSTRESU", "label": "Standard Units", "type": "string", "length": 8}, {"OID": "IT.LBUR.LBSTNRLO", "name": "LBSTNRLO", "label": "Reference Range Lower Limit-Std Units", "type": "integer", "length": 8}, {"OID": "IT.LBUR.LBSTNRHI", "name": "LBSTNRHI", "label": "Reference Range Upper Limit-Std Units", "type": "integer", "length": 8}, {"OID": "IT.LBUR.LBNRIND", "name": "LBNRIND", "label": "Reference Range Indicator", "type": "string", "length": 200}, {"OID": "IT.LBUR.LBBLFL", "name": "LBBLFL", "label": "Baseline Flag", "type": "string", "length": 1}, {"OID": "IT.LBUR.VISITNUM", "name": "VISITNUM", "label": "Visit Number", "type": "float", "length": 8, "keySequence": 4}, {"OID": "IT.LBUR.VISIT", "name": "VISIT", "label": "Visit Name", "type": "string", "length": 19}, {"OID": "IT.LBUR.VISITDY", "name": "VISITDY", "label": "Planned Study Day of Visit", "type": "integer", "length": 8}, {"OID": "IT.LBUR.EPOCH", "name": "EPOCH", "label": "Epoch", "type": "string", "length": 9}, {"OID": "IT.LBUR.LBDTC", "name": "LBDTC", "label": "Date/Time of Specimen Collection", "type": "string", "length": 16}, {"OID": "IT.LBUR.LBDY", "name": "LBDY", "label": "Study Day of Specimen Collection", "type": "integer", "length": 8}], "itemData": [[1, "CDISCPILOT01", "LB", "01-701-1015", 13, "COLOR", "Color", "URINALYSIS", "N", "", "", "", "N", null, "", null, null, "NORMAL", "Y", 1.0, "SCREENING 1", -7, "SCREENING", "2013-12-26T14:45", -7], [2, "CDISCPILOT01", "LB", "01-701-1015", 50, "COLOR", "Color", "URINALYSIS", "N", "", "", "", "N", null, "", null, null, "NORMAL", "", 4.0, "WEEK 2", 14, "TREATMENT", "2014-01-16T13:17", 15], [3, "CDISCPILOT01", "LB", "01-701-1015", 175, "COLOR", "Color", "URINALYSIS", "N", "", "", "", "N", null, "", null, null, "NORMAL", "", 9.0, "WEEK 12", 84, "TREATMENT", "2014-03-26T15:15", 84], [4, "CDISCPILOT01", "LB", "01-701-1015", 270, "COLOR", "Color", "URINALYSIS", "N", "", "", "", "N", null, "", null, null, "NORMAL", "", 12.0, "WEEK 24", 168, "TREATMENT", "2014-06-18T13:00", 168], [5, "CDISCPILOT01", "LB", "01-701-1015", 21, "KETONES", "Ketones", "URINALYSIS", "0", "", "", "", "0", 0, "", null, null, "NORMAL", "Y", 1.0, "SCREENING 1", -7, "SCREENING", "2013-12-26T14:45", -7], [6, "CDISCPILOT01", "LB", "01-701-1015", 58, "KETONES", "Ketones", "URINALYSIS", "0", "", "", "", "0", 0, "", null, null, "NORMAL", "", 4.0, "WEEK 2", 14, "TREATMENT", "2014-01-16T13:17", 15], [7, "CDISCPILOT01", "LB", "01-701-1015", 183, "KETONES", "Ketones", "URINALYSIS", "0", "", "", "", "0", 0, "", null, null, "NORMAL", "", 9.0, "WEEK 12", 84, "TREATMENT", "2014-03-26T15:15", 84], [8, "CDISCPILOT01", "LB", "01-701-1015", 278, "KETONES", "Ketones", "URINALYSIS", "0", "", "", "", "0", 0, "", null, null, "NORMAL", "", 12.0, "WEEK 24", 168, "TREATMENT", "2014-06-18T13:00", 168], [9, "CDISCPILOT01", "LB", "01-701-1015", 28, "PH", "pH", "URINALYSIS", "5.0", "", "5", "8", "5", 5, "", 5, 8, "NORMAL", "Y", 1.0, "SCREENING 1", -7, "SCREENING", "2013-12-26T14:45", -7], [10, "CDISCPILOT01", "LB", "01-701-1015", 65, "PH", "pH", "URINALYSIS", "5.0", "", "5", "8", "5", 5, "", 5, 8, "NORMAL", "", 4.0, "WEEK 2", 14, "TREATMENT", "2014-01-16T13:17", 15], [11, "CDISCPILOT01", "LB", "01-701-1015", 190, "PH", "pH", "URINALYSIS", "5.0", "", "5", "8", "5", 5, "", 5, 8, "NORMAL", "", 9.0, "WEEK 12", 84, "TREATMENT", "2014-03-26T15:15", 84], [12, "CDISCPILOT01", "LB", "01-701-1015", 285, "PH", "pH", "URINALYSIS", "5.0", "", "5", "8", "5", 5, "", 5, 8, "NORMAL", "", 12.0, "WEEK 24", 168, "TREATMENT", "2014-06-18T13:00", 168], [13, "CDISCPILOT01", "LB", "01-701-1015", 33, "SPGRAV", "Specific Gravity", "URINALYSIS", "1.013", "", "1.006", "1.03", "1.013", 1, "", 1, 1, "NORMAL", "Y", 1.0, "SCREENING 1", -7, "SCREENING", "2013-12-26T14:45", -7], [14, "CDISCPILOT01", "LB", "01-701-1015", 70, "SPGRAV", "Specific Gravity", "URINALYSIS", "1.007", "", "1.006", "1.03", "1.007", 1, "", 1, 1, "NORMAL", "", 4.0, "WEEK 2", 14, "TREATMENT", "2014-01-16T13:17", 15], [15, "CDISCPILOT01", "LB", "01-701-1015", 195, "SPGRAV", "Specific Gravity", "URINALYSIS", "1.011", "", "1.006", "1.03", "1.011", 1, "", 1, 1, "NORMAL", "", 9.0, "WEEK 12", 84, "TREATMENT", "2014-03-26T15:15", 84], [16, "CDISCPILOT01", "LB", "01-701-1015", 290, "SPGRAV", "Specific Gravity", "URINALYSIS", "1.005", "", "1.006", "1.03", "1.005", 1, "", 1, 1, "LOW", "", 12.0, "WEEK 24", 168, "TREATMENT", "2014-06-18T13:00", 168], [17, "CDISCPILOT01", "LB", "01-701-1015", 34, "TSH", "Thyrotropin", "OTHER", "1.68", "mIU/L", "0.32", "5", "1.68", 1, "mU/L", 0, 5, "NORMAL", "Y", 1.0, "SCREENING 1", -7, "SCREENING", "2013-12-26T14:45", -7], [18, "CDISCPILOT01", "LB", "01-701-1015", 36, "UROBIL", "Urobilinogen", "URINALYSIS", "0", "", "", "", "0", 0, "", null, null, "NORMAL", "Y", 1.0, "SCREENING 1", -7, "SCREENING", "2013-12-26T14:45", -7], [19, "CDISCPILOT01", "LB", "01-701-1015", 72, "UROBIL", "Urobilinogen", "URINALYSIS", "0", "", "", "", "0", 0, "", null, null, "NORMAL", "", 4.0, "WEEK 2", 14, "TREATMENT", "2014-01-16T13:17", 15], [20, "CDISCPILOT01", "LB", "01-701-1015", 197, "UROBIL", "Urobilinogen", "URINALYSIS", "0", "", "", "", "0", 0, "", null, null, "NORMAL", "", 9.0, "WEEK 12", 84, "TREATMENT", "2014-03-26T15:15", 84], [21, "CDISCPILOT01", "LB", "01-701-1015", 292, "UROBIL", "Urobilinogen", "URINALYSIS", "0", "", "", "", "0", 0, "", null, null, "NORMAL", "", 12.0, "WEEK 24", 168, "TREATMENT", "2014-06-18T13:00", 168], [22, "CDISCPILOT01", "LB", "01-701-1015", 37, "VITB12", "Vitamin B12", "OTHER", "399", "ng/L", "200", "900", "294.3822", 294, "pmol/L", 148, 664, "NORMAL", "Y", 1.0, "SCREENING 1", -7, "SCREENING", "2013-12-26T14:45", -7], [23, "CDISCPILOT01", "LB", "01-701-1023", 12, "COLOR", "Color", "URINALYSIS", "N", "", "", "", "N", null, "", null, null, "NORMAL", "Y", 1.0, "SCREENING 1", -7, "SCREENING", "2012-07-22T12:13", -14], [24, "CDISCPILOT01", "LB", "01-701-1023", 49, "COLOR", "Color", "URINALYSIS", "N", "", "", "", "N", null, "", null, null, "NORMAL", "", 4.0, "WEEK 2", 14, "TREATMENT", "2012-08-27T15:47", 23], [25, "CDISCPILOT01", "LB", "01-701-1023", 84, "COLOR", "Color", "URINALYSIS", "N", "", "", "", "N", null, "", null, null, "NORMAL", "", 5.0, "WEEK 4", 28, "TREATMENT", "2012-09-02T10:15", 29], [26, "CDISCPILOT01", "LB", "01-701-1023", 20, "KETONES", "Ketones", "URINALYSIS", "0", "", "", "", "0", 0, "", null, null, "NORMAL", "Y", 1.0, "SCREENING 1", -7, "SCREENING", "2012-07-22T12:13", -14], [27, "CDISCPILOT01", "LB", "01-701-1023", 57, "KETONES", "Ketones", "URINALYSIS", "0", "", "", "", "0", 0, "", null, null, "NORMAL", "", 4.0, "WEEK 2", 14, "TREATMENT", "2012-08-27T15:47", 23], [28, "CDISCPILOT01", "LB", "01-701-1023", 92, "KETONES", "Ketones", "URINALYSIS", "0", "", "", "", "0", 0, "", null, null, "NORMAL", "", 5.0, "WEEK 4", 28, "TREATMENT", "2012-09-02T10:15", 29], [29, "CDISCPILOT01", "LB", "01-701-1023", 27, "PH", "pH", "URINALYSIS", "5.0", "", "5", "8", "5", 5, "", 5, 8, "NORMAL", "Y", 1.0, "SCREENING 1", -7, "SCREENING", "2012-07-22T12:13", -14], [30, "CDISCPILOT01", "LB", "01-701-1023", 64, "PH", "pH", "URINALYSIS", "5.0", "", "5", "8", "5", 5, "", 5, 8, "NORMAL", "", 4.0, "WEEK 2", 14, "TREATMENT", "2012-08-27T15:47", 23], [31, "CDISCPILOT01", "LB", "01-701-1023", 99, "PH", "pH", "URINALYSIS", "5.0", "", "5", "8", "5", 5, "", 5, 8, "NORMAL", "", 5.0, "WEEK 4", 28, "TREATMENT", "2012-09-02T10:15", 29], [32, "CDISCPILOT01", "LB", "01-701-1023", 32, "SPGRAV", "Specific Gravity", "URINALYSIS", "1.016", "", "1.006", "1.03", "1.016", 1, "", 1, 1, "NORMAL", "Y", 1.0, "SCREENING 1", -7, "SCREENING", "2012-07-22T12:13", -14], [33, "CDISCPILOT01", "LB", "01-701-1023", 69, "SPGRAV", "Specific Gravity", "URINALYSIS", "1.026", "", "1.006", "1.03", "1.026", 1, "", 1, 1, "NORMAL", "", 4.0, "WEEK 2", 14, "TREATMENT", "2012-08-27T15:47", 23], [34, "CDISCPILOT01", "LB", "01-701-1023", 104, "SPGRAV", "Specific Gravity", "URINALYSIS", "1.016", "", "1.006", "1.03", "1.016", 1, "", 1, 1, "NORMAL", "", 5.0, "WEEK 4", 28, "TREATMENT", "2012-09-02T10:15", 29], [35, "CDISCPILOT01", "LB", "01-701-1023", 33, "TSH", "Thyrotropin", "OTHER", "1.28", "mIU/L", "0.32", "5", "1.28", 1, "mU/L", 0, 5, "NORMAL", "Y", 1.0, "SCREENING 1", -7, "SCREENING", "2012-07-22T12:13", -14], [36, "CDISCPILOT01", "LB", "01-701-1023", 35, "UROBIL", "Urobilinogen", "URINALYSIS", "0", "", "", "", "0", 0, "", null, null, "NORMAL", "Y", 1.0, "SCREENING 1", -7, "SCREENING", "2012-07-22T12:13", -14], [37, "CDISCPILOT01", "LB", "01-701-1023", 71, "UROBIL", "Urobilinogen", "URINALYSIS", "0", "", "", "", "0", 0, "", null, null, "NORMAL", "", 4.0, "WEEK 2", 14, "TREATMENT", "2012-08-27T15:47", 23], [38, "CDISCPILOT01", "LB", "01-701-1023", 106, "UROBIL", "Urobilinogen", "URINALYSIS", "0", "", "", "", "0", 0, "", null, null, "NORMAL", "", 5.0, "WEEK 4", 28, "TREATMENT", "2012-09-02T10:15", 29], [39, "CDISCPILOT01", "LB", "01-701-1023", 36, "VITB12", "Vitamin B12", "OTHER", "553", "ng/L", "200", "900", "408.0034", 408, "pmol/L", 148, 664, "NORMAL", "Y", 1.0, "SCREENING 1", -7, "SCREENING", "2012-07-22T12:13", -14], [40, "CDISCPILOT01", "LB", "01-701-1028", 12, "COLOR", "Color", "URINALYSIS", "N", "", "", "", "N", null, "", null, null, "NORMAL", "Y", 1.0, "SCREENING 1", -7, "SCREENING", "2013-07-11T12:02", -8], [41, "CDISCPILOT01", "LB", "01-701-1028", 49, "COLOR", "Color", "URINALYSIS", "N", "", "", "", "N", null, "", null, null, "NORMAL", "", 4.0, "WEEK 2", 14, "TREATMENT", "2013-08-01T09:15", 14], [42, "CDISCPILOT01", "LB", "01-701-1028", 174, "COLOR", "Color", "URINALYSIS", "N", "", "", "", "N", null, "", null, null, "NORMAL", "", 9.0, "WEEK 12", 84, "TREATMENT", "2013-10-09T08:42", 83], [43, "CDISCPILOT01", "LB", "01-701-1028", 272, "COLOR", "Color", "URINALYSIS", "N", "", "", "", "N", null, "", null, null, "NORMAL", "", 12.0, "WEEK 24", 168, "TREATMENT", "2014-01-06T10:00", 172], [44, "CDISCPILOT01", "LB", "01-701-1028", 20, "KETONES", "Ketones", "URINALYSIS", "0", "", "", "", "0", 0, "", null, null, "NORMAL", "Y", 1.0, "SCREENING 1", -7, "SCREENING", "2013-07-11T12:02", -8], [45, "CDISCPILOT01", "LB", "01-701-1028", 57, "KETONES", "Ketones", "URINALYSIS", "0", "", "", "", "0", 0, "", null, null, "NORMAL", "", 4.0, "WEEK 2", 14, "TREATMENT", "2013-08-01T09:15", 14], [46, "CDISCPILOT01", "LB", "01-701-1028", 182, "KETONES", "Ketones", "URINALYSIS", "0", "", "", "", "0", 0, "", null, null, "NORMAL", "", 9.0, "WEEK 12", 84, "TREATMENT", "2013-10-09T08:42", 83], [47, "CDISCPILOT01", "LB", "01-701-1028", 280, "KETONES", "Ketones", "URINALYSIS", "0", "", "", "", "0", 0, "", null, null, "NORMAL", "", 12.0, "WEEK 24", 168, "TREATMENT", "2014-01-06T10:00", 172], [48, "CDISCPILOT01", "LB", "01-701-1028", 27, "PH", "pH", "URINALYSIS", "5.0", "", "5", "8", "5", 5, "", 5, 8, "NORMAL", "Y", 1.0, "SCREENING 1", -7, "SCREENING", "2013-07-11T12:02", -8], [49, "CDISCPILOT01", "LB", "01-701-1028", 64, "PH", "pH", "URINALYSIS", "5.0", "", "5", "8", "5", 5, "", 5, 8, "NORMAL", "", 4.0, "WEEK 2", 14, "TREATMENT", "2013-08-01T09:15", 14], [50, "CDISCPILOT01", "LB", "01-701-1028", 189, "PH", "pH", "URINALYSIS", "5.0", "", "5", "8", "5", 5, "", 5, 8, "NORMAL", "", 9.0, "WEEK 12", 84, "TREATMENT", "2013-10-09T08:42", 83], [51, "CDISCPILOT01", "LB", "01-701-1028", 288, "PH", "pH", "URINALYSIS", "5.0", "", "5", "8", "5", 5, "", 5, 8, "NORMAL", "", 12.0, "WEEK 24", 168, "TREATMENT", "2014-01-06T10:00", 172], [52, "CDISCPILOT01", "LB", "01-701-1028", 32, "SPGRAV", "Specific Gravity", "URINALYSIS", "1.008", "", "1.006", "1.03", "1.008", 1, "", 1, 1, "NORMAL", "Y", 1.0, "SCREENING 1", -7, "SCREENING", "2013-07-11T12:02", -8], [53, "CDISCPILOT01", "LB", "01-701-1028", 69, "SPGRAV", "Specific Gravity", "URINALYSIS", "1.010", "", "1.006", "1.03", "1.01", 1, "", 1, 1, "NORMAL", "", 4.0, "WEEK 2", 14, "TREATMENT", "2013-08-01T09:15", 14], [54, "CDISCPILOT01", "LB", "01-701-1028", 194, "SPGRAV", "Specific Gravity", "URINALYSIS", "1.008", "", "1.006", "1.03", "1.008", 1, "", 1, 1, "NORMAL", "", 9.0, "WEEK 12", 84, "TREATMENT", "2013-10-09T08:42", 83], [55, "CDISCPILOT01", "LB", "01-701-1028", 294, "SPGRAV", "Specific Gravity", "URINALYSIS", "1.012", "", "1.006", "1.03", "1.012", 1, "", 1, 1, "NORMAL", "", 12.0, "WEEK 24", 168, "TREATMENT", "2014-01-06T10:00", 172], [56, "CDISCPILOT01", "LB", "01-701-1028", 33, "TSH", "Thyrotropin", "OTHER", "2.90", "mIU/L", "0.32", "5", "2.9", 2, "mU/L", 0, 5, "NORMAL", "Y", 1.0, "SCREENING 1", -7, "SCREENING", "2013-07-11T12:02", -8], [57, "CDISCPILOT01", "LB", "01-701-1028", 35, "UROBIL", "Urobilinogen", "URINALYSIS", "0", "", "", "", "0", 0, "", null, null, "NORMAL", "Y", 1.0, "SCREENING 1", -7, "SCREENING", "2013-07-11T12:02", -8], [58, "CDISCPILOT01", "LB", "01-701-1028", 71, "UROBIL", "Urobilinogen", "URINALYSIS", "0", "", "", "", "0", 0, "", null, null, "NORMAL", "", 4.0, "WEEK 2", 14, "TREATMENT", "2013-08-01T09:15", 14], [59, "CDISCPILOT01", "LB", "01-701-1028", 196, "UROBIL", "Urobilinogen", "URINALYSIS", "0", "", "", "", "0", 0, "", null, null, "NORMAL", "", 9.0, "WEEK 12", 84, "TREATMENT", "2013-10-09T08:42", 83], [60, "CDISCPILOT01", "LB", "01-701-1028", 296, "UROBIL", "Urobilinogen", "URINALYSIS", "0", "", "", "", "0", 0, "", null, null, "NORMAL", "", 12.0, "WEEK 24", 168, "TREATMENT", "2014-01-06T10:00", 172], [61, "CDISCPILOT01", "LB", "01-701-1028", 36, "VITB12", "Vitamin B12", "OTHER", "252", "ng/L", "200", "900", "185.9256", 185, "pmol/L", 148, 664, "NORMAL", "Y", 1.0, "SCREENING 1", -7, "SCREENING", "2013-07-11T12:02", -8], [62, "CDISCPILOT01", "LB", "01-701-1033", 12, "COLOR", "Color", "URINALYSIS", "N", "", "", "", "N", null, "", null, null, "NORMAL", "Y", 1.0, "SCREENING 1", -7, "SCREENING", "2014-03-10T12:31", -8], [63, "CDISCPILOT01", "LB", "01-701-1033", 49, "COLOR", "Color", "URINALYSIS", "N", "", "", "", "N", null, "", null, null, "NORMAL", "", 4.0, "WEEK 2", 14, "TREATMENT", "2014-04-01T08:55", 15], [64, "CDISCPILOT01", "LB", "01-701-1033", 84, "COLOR", "Color", "URINALYSIS", "N", "", "", "", "N", null, "", null, null, "NORMAL", "", 5.0, "WEEK 4", 28, "TREATMENT", "2014-04-14T10:38", 28], [65, "CDISCPILOT01", "LB", "01-701-1033", 20, "KETONES", "Ketones", "URINALYSIS", "0", "", "", "", "0", 0, "", null, null, "NORMAL", "Y", 1.0, "SCREENING 1", -7, "SCREENING", "2014-03-10T12:31", -8], [66, "CDISCPILOT01", "LB", "01-701-1033", 57, "KETONES", "Ketones", "URINALYSIS", "0", "", "", "", "0", 0, "", null, null, "NORMAL", "", 4.0, "WEEK 2", 14, "TREATMENT", "2014-04-01T08:55", 15], [67, "CDISCPILOT01", "LB", "01-701-1033", 92, "KETONES", "Ketones", "URINALYSIS", "0", "", "", "", "0", 0, "", null, null, "NORMAL", "", 5.0, "WEEK 4", 28, "TREATMENT", "2014-04-14T10:38", 28], [68, "CDISCPILOT01", "LB", "01-701-1033", 27, "PH", "pH", "URINALYSIS", "5.0", "", "5", "8", "5", 5, "", 5, 8, "NORMAL", "Y", 1.0, "SCREENING 1", -7, "SCREENING", "2014-03-10T12:31", -8], [69, "CDISCPILOT01", "LB", "01-701-1033", 64, "PH", "pH", "URINALYSIS", "5.0", "", "5", "8", "5", 5, "", 5, 8, "NORMAL", "", 4.0, "WEEK 2", 14, "TREATMENT", "2014-04-01T08:55", 15], [70, "CDISCPILOT01", "LB", "01-701-1033", 99, "PH", "pH", "URINALYSIS", "5.0", "", "5", "8", "5", 5, "", 5, 8, "NORMAL", "", 5.0, "WEEK 4", 28, "TREATMENT", "2014-04-14T10:38", 28], [71, "CDISCPILOT01", "LB", "01-701-1033", 32, "SPGRAV", "Specific Gravity", "URINALYSIS", "1.020", "", "1.006", "1.03", "1.02", 1, "", 1, 1, "NORMAL", "Y", 1.0, "SCREENING 1", -7, "SCREENING", "2014-03-10T12:31", -8], [72, "CDISCPILOT01", "LB", "01-701-1033", 69, "SPGRAV", "Specific Gravity", "URINALYSIS", "1.014", "", "1.006", "1.03", "1.014", 1, "", 1, 1, "NORMAL", "", 4.0, "WEEK 2", 14, "TREATMENT", "2014-04-01T08:55", 15], [73, "CDISCPILOT01", "LB", "01-701-1033", 104, "SPGRAV", "Specific Gravity", "URINALYSIS", "1.027", "", "1.006", "1.03", "1.027", 1, "", 1, 1, "NORMAL", "", 5.0, "WEEK 4", 28, "TREATMENT", "2014-04-14T10:38", 28], [74, "CDISCPILOT01", "LB", "01-701-1033", 33, "TSH", "Thyrotropin", "OTHER", "0.84", "mIU/L", "0.32", "5", "0.84", 0, "mU/L", 0, 5, "NORMAL", "Y", 1.0, "SCREENING 1", -7, "SCREENING", "2014-03-10T12:31", -8], [75, "CDISCPILOT01", "LB", "01-701-1033", 35, "UROBIL", "Urobilinogen", "URINALYSIS", "0", "", "", "", "0", 0, "", null, null, "NORMAL", "Y", 1.0, "SCREENING 1", -7, "SCREENING", "2014-03-10T12:31", -8], [76, "CDISCPILOT01", "LB", "01-701-1033", 71, "UROBIL", "Urobilinogen", "URINALYSIS", "0", "", "", "", "0", 0, "", null, null, "NORMAL", "", 4.0, "WEEK 2", 14, "TREATMENT", "2014-04-01T08:55", 15], [77, "CDISCPILOT01", "LB", "01-701-1033", 106, "UROBIL", "Urobilinogen", "URINALYSIS", "0", "", "", "", "0", 0, "", null, null, "NORMAL", "", 5.0, "WEEK 4", 28, "TREATMENT", "2014-04-14T10:38", 28], [78, "CDISCPILOT01", "LB", "01-701-1033", 36, "VITB12", "Vitamin B12", "OTHER", "503", "ng/L", "200", "900", "371.1134", 371, "pmol/L", 148, 664, "NORMAL", "Y", 1.0, "SCREENING 1", -7, "SCREENING", "2014-03-10T12:31", -8], [79, "CDISCPILOT01", "LB", "01-701-1034", 13, "COLOR", "Color", "URINALYSIS", "N", "", "", "", "N", null, "", null, null, "NORMAL", "Y", 1.0, "SCREENING 1", -7, "SCREENING", "2014-06-24T15:30", -7], [80, "CDISCPILOT01", "LB", "01-701-1034", 50, "COLOR", "Color", "URINALYSIS", "N", "", "", "", "N", null, "", null, null, "NORMAL", "", 4.0, "WEEK 2", 14, "TREATMENT", "2014-07-15T09:25", 15], [81, "CDISCPILOT01", "LB", "01-701-1034", 178, "COLOR", "Color", "URINALYSIS", "N", "", "", "", "N", null, "", null, null, "NORMAL", "", 9.0, "WEEK 12", 84, "TREATMENT", "2014-09-25T15:40", 87], [82, "CDISCPILOT01", "LB", "01-701-1034", 275, "COLOR", "Color", "URINALYSIS", "N", "", "", "", "N", null, "", null, null, "NORMAL", "", 12.0, "WEEK 24", 168, "TREATMENT", "2014-12-17T14:27", 170], [83, "CDISCPILOT01", "LB", "01-701-1034", 21, "KETONES", "Ketones", "URINALYSIS", "0", "", "", "", "0", 0, "", null, null, "NORMAL", "Y", 1.0, "SCREENING 1", -7, "SCREENING", "2014-06-24T15:30", -7], [84, "CDISCPILOT01", "LB", "01-701-1034", 58, "KETONES", "Ketones", "URINALYSIS", "0", "", "", "", "0", 0, "", null, null, "NORMAL", "", 4.0, "WEEK 2", 14, "TREATMENT", "2014-07-15T09:25", 15], [85, "CDISCPILOT01", "LB", "01-701-1034", 186, "KETONES", "Ketones", "URINALYSIS", "0", "", "", "", "0", 0, "", null, null, "NORMAL", "", 9.0, "WEEK 12", 84, "TREATMENT", "2014-09-25T15:40", 87], [86, "CDISCPILOT01", "LB", "01-701-1034", 283, "KETONES", "Ketones", "URINALYSIS", "0", "", "", "", "0", 0, "", null, null, "NORMAL", "", 12.0, "WEEK 24", 168, "TREATMENT", "2014-12-17T14:27", 170], [87, "CDISCPILOT01", "LB", "01-701-1034", 28, "PH", "pH", "URINALYSIS", "5.0", "", "5", "8", "5", 5, "", 5, 8, "NORMAL", "Y", 1.0, "SCREENING 1", -7, "SCREENING", "2014-06-24T15:30", -7], [88, "CDISCPILOT01", "LB", "01-701-1034", 66, "PH", "pH", "URINALYSIS", "5.0", "", "5", "8", "5", 5, "", 5, 8, "NORMAL", "", 4.0, "WEEK 2", 14, "TREATMENT", "2014-07-15T09:25", 15], [89, "CDISCPILOT01", "LB", "01-701-1034", 193, "PH", "pH", "URINALYSIS", "5.0", "", "5", "8", "5", 5, "", 5, 8, "NORMAL", "", 9.0, "WEEK 12", 84, "TREATMENT", "2014-09-25T15:40", 87], [90, "CDISCPILOT01", "LB", "01-701-1034", 291, "PH", "pH", "URINALYSIS", "5.0", "", "5", "8", "5", 5, "", 5, 8, "NORMAL", "", 12.0, "WEEK 24", 168, "TREATMENT", "2014-12-17T14:27", 170], [91, "CDISCPILOT01", "LB", "01-701-1034", 33, "SPGRAV", "Specific Gravity", "URINALYSIS", "1.015", "", "1.006", "1.03", "1.015", 1, "", 1, 1, "NORMAL", "Y", 1.0, "SCREENING 1", -7, "SCREENING", "2014-06-24T15:30", -7], [92, "CDISCPILOT01", "LB", "01-701-1034", 71, "SPGRAV", "Specific Gravity", "URINALYSIS", "1.019", "", "1.006", "1.03", "1.019", 1, "", 1, 1, "NORMAL", "", 4.0, "WEEK 2", 14, "TREATMENT", "2014-07-15T09:25", 15], [93, "CDISCPILOT01", "LB", "01-701-1034", 198, "SPGRAV", "Specific Gravity", "URINALYSIS", "1.007", "", "1.006", "1.03", "1.007", 1, "", 1, 1, "NORMAL", "", 9.0, "WEEK 12", 84, "TREATMENT", "2014-09-25T15:40", 87], [94, "CDISCPILOT01", "LB", "01-701-1034", 296, "SPGRAV", "Specific Gravity", "URINALYSIS", "1.015", "", "1.006", "1.03", "1.015", 1, "", 1, 1, "NORMAL", "", 12.0, "WEEK 24", 168, "TREATMENT", "2014-12-17T14:27", 170], [95, "CDISCPILOT01", "LB", "01-701-1034", 34, "TSH", "Thyrotropin", "OTHER", "0.27", "mIU/L", "0.32", "5", "0.27", 0, "mU/L", 0, 5, "LOW", "Y", 1.0, "SCREENING 1", -7, "SCREENING", "2014-06-24T15:30", -7], [96, "CDISCPILOT01", "LB", "01-701-1034", 36, "UROBIL", "Urobilinogen", "URINALYSIS", "0", "", "", "", "0", 0, "", null, null, "NORMAL", "Y", 1.0, "SCREENING 1", -7, "SCREENING", "2014-06-24T15:30", -7], [97, "CDISCPILOT01", "LB", "01-701-1034", 73, "UROBIL", "Urobilinogen", "URINALYSIS", "0", "", "", "", "0", 0, "", null, null, "NORMAL", "", 4.0, "WEEK 2", 14, "TREATMENT", "2014-07-15T09:25", 15], [98, "CDISCPILOT01", "LB", "01-701-1034", 200, "UROBIL", "Urobilinogen", "URINALYSIS", "0", "", "", "", "0", 0, "", null, null, "NORMAL", "", 9.0, "WEEK 12", 84, "TREATMENT", "2014-09-25T15:40", 87], [99, "CDISCPILOT01", "LB", "01-701-1034", 298, "UROBIL", "Urobilinogen", "URINALYSIS", "0", "", "", "", "0", 0, "", null, null, "NORMAL", "", 12.0, "WEEK 24", 168, "TREATMENT", "2014-12-17T14:27", 170], [100, "CDISCPILOT01", "LB", "01-701-1034", 37, "VITB12", "Vitamin B12", "OTHER", "592", "ng/L", "200", "900", "436.7776", 436, "pmol/L", 148, 664, "NORMAL", "Y", 1.0, "SCREENING 1", -7, "SCREENING", "2014-06-24T15:30", -7], [101, "CDISCPILOT01", "LB", "01-701-1047", 12, "COLOR", "Color", "URINALYSIS", "N", "", "", "", "N", null, "", null, null, "NORMAL", "Y", 1.0, "SCREENING 1", -7, "SCREENING", "2013-01-22T14:36", -21], [102, "CDISCPILOT01", "LB", "01-701-1047", 49, "COLOR", "Color", "URINALYSIS", "N", "", "", "", "N", null, "", null, null, "NORMAL", "", 4.0, "WEEK 2", 14, "TREATMENT", "2013-02-25T12:10", 14], [103, "CDISCPILOT01", "LB", "01-701-1047", 104, "COLOR", "Color", "URINALYSIS", "N", "", "", "", "N", null, "", null, null, "NORMAL", "", 6.0, "AMBUL ECG REMOVAL", 30, "TREATMENT", "2013-03-29T12:53", 46], [104, "CDISCPILOT01", "LB", "01-701-1047", 20, "KETONES", "Ketones", "URINALYSIS", "0", "", "", "", "0", 0, "", null, null, "NORMAL", "Y", 1.0, "SCREENING 1", -7, "SCREENING", "2013-01-22T14:36", -21], [105, "CDISCPILOT01", "LB", "01-701-1047", 57, "KETONES", "Ketones", "URINALYSIS", "0", "", "", "", "0", 0, "", null, null, "NORMAL", "", 4.0, "WEEK 2", 14, "TREATMENT", "2013-02-25T12:10", 14], [106, "CDISCPILOT01", "LB", "01-701-1047", 108, "KETONES", "Ketones", "URINALYSIS", "0", "", "", "", "0", 0, "", null, null, "NORMAL", "", 6.0, "AMBUL ECG REMOVAL", 30, "TREATMENT", "2013-03-29T12:53", 46], [107, "CDISCPILOT01", "LB", "01-701-1047", 27, "PH", "pH", "URINALYSIS", "5.0", "", "5", "8", "5", 5, "", 5, 8, "NORMAL", "Y", 1.0, "SCREENING 1", -7, "SCREENING", "2013-01-22T14:36", -21], [108, "CDISCPILOT01", "LB", "01-701-1047", 64, "PH", "pH", "URINALYSIS", "5.0", "", "5", "8", "5", 5, "", 5, 8, "NORMAL", "", 4.0, "WEEK 2", 14, "TREATMENT", "2013-02-25T12:10", 14], [109, "CDISCPILOT01", "LB", "01-701-1047", 114, "PH", "pH", "URINALYSIS", "5.0", "", "5", "8", "5", 5, "", 5, 8, "NORMAL", "", 6.0, "AMBUL ECG REMOVAL", 30, "TREATMENT", "2013-03-29T12:53", 46], [110, "CDISCPILOT01", "LB", "01-701-1047", 32, "SPGRAV", "Specific Gravity", "URINALYSIS", "1.021", "", "1.006", "1.03", "1.021", 1, "", 1, 1, "NORMAL", "Y", 1.0, "SCREENING 1", -7, "SCREENING", "2013-01-22T14:36", -21], [111, "CDISCPILOT01", "LB", "01-701-1047", 69, "SPGRAV", "Specific Gravity", "URINALYSIS", "1.015", "", "1.006", "1.03", "1.015", 1, "", 1, 1, "NORMAL", "", 4.0, "WEEK 2", 14, "TREATMENT", "2013-02-25T12:10", 14], [112, "CDISCPILOT01", "LB", "01-701-1047", 117, "SPGRAV", "Specific Gravity", "URINALYSIS", "1.025", "", "1.006", "1.03", "1.025", 1, "", 1, 1, "NORMAL", "", 6.0, "AMBUL ECG REMOVAL", 30, "TREATMENT", "2013-03-29T12:53", 46], [113, "CDISCPILOT01", "LB", "01-701-1047", 33, "TSH", "Thyrotropin", "OTHER", "0.46", "mIU/L", "0.32", "5", "0.46", 0, "mU/L", 0, 5, "NORMAL", "Y", 1.0, "SCREENING 1", -7, "SCREENING", "2013-01-22T14:36", -21], [114, "CDISCPILOT01", "LB", "01-701-1047", 35, "UROBIL", "Urobilinogen", "URINALYSIS", "0", "", "", "", "0", 0, "", null, null, "NORMAL", "Y", 1.0, "SCREENING 1", -7, "SCREENING", "2013-01-22T14:36", -21], [115, "CDISCPILOT01", "LB", "01-701-1047", 71, "UROBIL", "Urobilinogen", "URINALYSIS", "0", "", "", "", "0", 0, "", null, null, "NORMAL", "", 4.0, "WEEK 2", 14, "TREATMENT", "2013-02-25T12:10", 14], [116, "CDISCPILOT01", "LB", "01-701-1047", 118, "UROBIL", "Urobilinogen", "URINALYSIS", "0", "", "", "", "0", 0, "", null, null, "NORMAL", "", 6.0, "AMBUL ECG REMOVAL", 30, "TREATMENT", "2013-03-29T12:53", 46], [117, "CDISCPILOT01", "LB", "01-701-1047", 36, "VITB12", "Vitamin B12", "OTHER", "585", "ng/L", "200", "900", "431.613", 431, "pmol/L", 148, 664, "NORMAL", "Y", 1.0, "SCREENING 1", -7, "SCREENING", "2013-01-22T14:36", -21], [118, "CDISCPILOT01", "LB", "01-701-1097", 12, "COLOR", "Color", "URINALYSIS", "N", "", "", "", "N", null, "", null, null, "NORMAL", "Y", 1.0, "SCREENING 1", -7, "SCREENING", "2013-12-23T12:30", -9], [119, "CDISCPILOT01", "LB", "01-701-1097", 49, "COLOR", "Color", "URINALYSIS", "N", "", "", "", "N", null, "", null, null, "NORMAL", "", 4.0, "WEEK 2", 14, "TREATMENT", "2014-01-15T10:03", 15], [120, "CDISCPILOT01", "LB", "01-701-1097", 174, "COLOR", "Color", "URINALYSIS", "N", "", "", "", "N", null, "", null, null, "NORMAL", "", 9.0, "WEEK 12", 84, "TREATMENT", "2014-03-26T08:55", 85], [121, "CDISCPILOT01", "LB", "01-701-1097", 269, "COLOR", "Color", "URINALYSIS", "N", "", "", "", "N", null, "", null, null, "NORMAL", "", 12.0, "WEEK 24", 168, "TREATMENT", "2014-06-18T10:41", 169], [122, "CDISCPILOT01", "LB", "01-701-1097", 304, "COLOR", "Color", "URINALYSIS", "N", "", "", "", "N", null, "", null, null, "NORMAL", "", 13.0, "WEEK 26", 182, "TREATMENT", "2014-07-09T09:39", 190], [123, "CDISCPILOT01", "LB", "01-701-1097", 20, "KETONES", "Ketones", "URINALYSIS", "0", "", "", "", "0", 0, "", null, null, "NORMAL", "Y", 1.0, "SCREENING 1", -7, "SCREENING", "2013-12-23T12:30", -9], [124, "CDISCPILOT01", "LB", "01-701-1097", 57, "KETONES", "Ketones", "URINALYSIS", "0", "", "", "", "0", 0, "", null, null, "NORMAL", "", 4.0, "WEEK 2", 14, "TREATMENT", "2014-01-15T10:03", 15], [125, "CDISCPILOT01", "LB", "01-701-1097", 182, "KETONES", "Ketones", "URINALYSIS", "0", "", "", "", "0", 0, "", null, null, "NORMAL", "", 9.0, "WEEK 12", 84, "TREATMENT", "2014-03-26T08:55", 85], [126, "CDISCPILOT01", "LB", "01-701-1097", 277, "KETONES", "Ketones", "URINALYSIS", "0", "", "", "", "0", 0, "", null, null, "NORMAL", "", 12.0, "WEEK 24", 168, "TREATMENT", "2014-06-18T10:41", 169], [127, "CDISCPILOT01", "LB", "01-701-1097", 312, "KETONES", "Ketones", "URINALYSIS", "0", "", "", "", "0", 0, "", null, null, "NORMAL", "", 13.0, "WEEK 26", 182, "TREATMENT", "2014-07-09T09:39", 190], [128, "CDISCPILOT01", "LB", "01-701-1097", 27, "PH", "pH", "URINALYSIS", "5.0", "", "5", "8", "5", 5, "", 5, 8, "NORMAL", "Y", 1.0, "SCREENING 1", -7, "SCREENING", "2013-12-23T12:30", -9], [129, "CDISCPILOT01", "LB", "01-701-1097", 64, "PH", "pH", "URINALYSIS", "5.0", "", "5", "8", "5", 5, "", 5, 8, "NORMAL", "", 4.0, "WEEK 2", 14, "TREATMENT", "2014-01-15T10:03", 15], [130, "CDISCPILOT01", "LB", "01-701-1097", 189, "PH", "pH", "URINALYSIS", "5.0", "", "5", "8", "5", 5, "", 5, 8, "NORMAL", "", 9.0, "WEEK 12", 84, "TREATMENT", "2014-03-26T08:55", 85], [131, "CDISCPILOT01", "LB", "01-701-1097", 284, "PH", "pH", "URINALYSIS", "5.0", "", "5", "8", "5", 5, "", 5, 8, "NORMAL", "", 12.0, "WEEK 24", 168, "TREATMENT", "2014-06-18T10:41", 169], [132, "CDISCPILOT01", "LB", "01-701-1097", 319, "PH", "pH", "URINALYSIS", "5.0", "", "5", "8", "5", 5, "", 5, 8, "NORMAL", "", 13.0, "WEEK 26", 182, "TREATMENT", "2014-07-09T09:39", 190], [133, "CDISCPILOT01", "LB", "01-701-1097", 32, "SPGRAV", "Specific Gravity", "URINALYSIS", "1.019", "", "1.006", "1.03", "1.019", 1, "", 1, 1, "NORMAL", "Y", 1.0, "SCREENING 1", -7, "SCREENING", "2013-12-23T12:30", -9], [134, "CDISCPILOT01", "LB", "01-701-1097", 69, "SPGRAV", "Specific Gravity", "URINALYSIS", "1.022", "", "1.006", "1.03", "1.022", 1, "", 1, 1, "NORMAL", "", 4.0, "WEEK 2", 14, "TREATMENT", "2014-01-15T10:03", 15], [135, "CDISCPILOT01", "LB", "01-701-1097", 194, "SPGRAV", "Specific Gravity", "URINALYSIS", "1.026", "", "1.006", "1.03", "1.026", 1, "", 1, 1, "NORMAL", "", 9.0, "WEEK 12", 84, "TREATMENT", "2014-03-26T08:55", 85], [136, "CDISCPILOT01", "LB", "01-701-1097", 289, "SPGRAV", "Specific Gravity", "URINALYSIS", "1.025", "", "1.006", "1.03", "1.025", 1, "", 1, 1, "NORMAL", "", 12.0, "WEEK 24", 168, "TREATMENT", "2014-06-18T10:41", 169], [137, "CDISCPILOT01", "LB", "01-701-1097", 324, "SPGRAV", "Specific Gravity", "URINALYSIS", "1.019", "", "1.006", "1.03", "1.019", 1, "", 1, 1, "NORMAL", "", 13.0, "WEEK 26", 182, "TREATMENT", "2014-07-09T09:39", 190], [138, "CDISCPILOT01", "LB", "01-701-1097", 33, "TSH", "Thyrotropin", "OTHER", "2.75", "mIU/L", "0.32", "5", "2.75", 2, "mU/L", 0, 5, "NORMAL", "Y", 1.0, "SCREENING 1", -7, "SCREENING", "2013-12-23T12:30", -9], [139, "CDISCPILOT01", "LB", "01-701-1097", 35, "UROBIL", "Urobilinogen", "URINALYSIS", "0", "", "", "", "0", 0, "", null, null, "NORMAL", "Y", 1.0, "SCREENING 1", -7, "SCREENING", "2013-12-23T12:30", -9], [140, "CDISCPILOT01", "LB", "01-701-1097", 71, "UROBIL", "Urobilinogen", "URINALYSIS", "0", "", "", "", "0", 0, "", null, null, "NORMAL", "", 4.0, "WEEK 2", 14, "TREATMENT", "2014-01-15T10:03", 15], [141, "CDISCPILOT01", "LB", "01-701-1097", 196, "UROBIL", "Urobilinogen", "URINALYSIS", "0", "", "", "", "0", 0, "", null, null, "NORMAL", "", 9.0, "WEEK 12", 84, "TREATMENT", "2014-03-26T08:55", 85], [142, "CDISCPILOT01", "LB", "01-701-1097", 291, "UROBIL", "Urobilinogen", "URINALYSIS", "0", "", "", "", "0", 0, "", null, null, "NORMAL", "", 12.0, "WEEK 24", 168, "TREATMENT", "2014-06-18T10:41", 169], [143, "CDISCPILOT01", "LB", "01-701-1097", 326, "UROBIL", "Urobilinogen", "URINALYSIS", "0", "", "", "", "0", 0, "", null, null, "NORMAL", "", 13.0, "WEEK 26", 182, "TREATMENT", "2014-07-09T09:39", 190], [144, "CDISCPILOT01", "LB", "01-701-1097", 36, "VITB12", "Vitamin B12", "OTHER", "411", "ng/L", "200", "900", "303.2358", 303, "pmol/L", 148, 664, "NORMAL", "Y", 1.0, "SCREENING 1", -7, "SCREENING", "2013-12-23T12:30", -9], [145, "CDISCPILOT01", "LB", "01-701-1111", 12, "COLOR", "Color", "URINALYSIS", "N", "", "", "", "N", null, "", null, null, "NORMAL", "Y", 1.0, "SCREENING 1", -7, "SCREENING", "2012-08-25T15:25", -13], [146, "CDISCPILOT01", "LB", "01-701-1111", 50, "COLOR", "Color", "URINALYSIS", "N", "", "", "", "N", null, "", null, null, "NORMAL", "", 4.0, "WEEK 2", 14, "TREATMENT", "2012-09-17T11:48", 11], [147, "CDISCPILOT01", "LB", "01-701-1111", 20, "KETONES", "Ketones", "URINALYSIS", "0", "", "", "", "0", 0, "", null, null, "NORMAL", "Y", 1.0, "SCREENING 1", -7, "SCREENING", "2012-08-25T15:25", -13], [148, "CDISCPILOT01", "LB", "01-701-1111", 58, "KETONES", "Ketones", "URINALYSIS", "0", "", "", "", "0", 0, "", null, null, "NORMAL", "", 4.0, "WEEK 2", 14, "TREATMENT", "2012-09-17T11:48", 11], [149, "CDISCPILOT01", "LB", "01-701-1111", 27, "PH", "pH", "URINALYSIS", "6.0", "", "5", "8", "6", 6, "", 5, 8, "NORMAL", "Y", 1.0, "SCREENING 1", -7, "SCREENING", "2012-08-25T15:25", -13], [150, "CDISCPILOT01", "LB", "01-701-1111", 65, "PH", "pH", "URINALYSIS", "5.0", "", "5", "8", "5", 5, "", 5, 8, "NORMAL", "", 4.0, "WEEK 2", 14, "TREATMENT", "2012-09-17T11:48", 11], [151, "CDISCPILOT01", "LB", "01-701-1111", 32, "SPGRAV", "Specific Gravity", "URINALYSIS", "1.007", "", "1.006", "1.03", "1.007", 1, "", 1, 1, "NORMAL", "Y", 1.0, "SCREENING 1", -7, "SCREENING", "2012-08-25T15:25", -13], [152, "CDISCPILOT01", "LB", "01-701-1111", 70, "SPGRAV", "Specific Gravity", "URINALYSIS", "1.004", "", "1.006", "1.03", "1.004", 1, "", 1, 1, "LOW", "", 4.0, "WEEK 2", 14, "TREATMENT", "2012-09-17T11:48", 11], [153, "CDISCPILOT01", "LB", "01-701-1111", 33, "TSH", "Thyrotropin", "OTHER", "1.25", "mIU/L", "0.32", "5", "1.25", 1, "mU/L", 0, 5, "NORMAL", "Y", 1.0, "SCREENING 1", -7, "SCREENING", "2012-08-25T15:25", -13], [154, "CDISCPILOT01", "LB", "01-701-1111", 35, "UROBIL", "Urobilinogen", "URINALYSIS", "0", "", "", "", "0", 0, "", null, null, "NORMAL", "Y", 1.0, "SCREENING 1", -7, "SCREENING", "2012-08-25T15:25", -13], [155, "CDISCPILOT01", "LB", "01-701-1111", 72, "UROBIL", "Urobilinogen", "URINALYSIS", "0", "", "", "", "0", 0, "", null, null, "NORMAL", "", 4.0, "WEEK 2", 14, "TREATMENT", "2012-09-17T11:48", 11], [156, "CDISCPILOT01", "LB", "01-701-1111", 36, "VITB12", "Vitamin B12", "OTHER", "527", "ng/L", "200", "900", "388.8206", 388, "pmol/L", 148, 664, "NORMAL", "Y", 1.0, "SCREENING 1", -7, "SCREENING", "2012-08-25T15:25", -13], [157, "CDISCPILOT01", "LB", "01-701-1115", 12, "COLOR", "Color", "URINALYSIS", "N", "", "", "", "N", null, "", null, null, "NORMAL", "Y", 1.0, "SCREENING 1", -7, "SCREENING", "2012-11-23T11:20", -7], [158, "CDISCPILOT01", "LB", "01-701-1115", 49, "COLOR", "Color", "URINALYSIS", "N", "", "", "", "N", null, "", null, null, "NORMAL", "", 4.0, "WEEK 2", 14, "TREATMENT", "2012-12-13T14:05", 14], [159, "CDISCPILOT01", "LB", "01-701-1115", 159, "COLOR", "Color", "URINALYSIS", "N", "", "", "", "N", null, "", null, null, "NORMAL", "", 8.0, "WEEK 8", 56, "TREATMENT", "2013-01-23T12:13", 55], [160, "CDISCPILOT01", "LB", "01-701-1115", 20, "KETONES", "Ketones", "URINALYSIS", "0", "", "", "", "0", 0, "", null, null, "NORMAL", "Y", 1.0, "SCREENING 1", -7, "SCREENING", "2012-11-23T11:20", -7], [161, "CDISCPILOT01", "LB", "01-701-1115", 57, "KETONES", "Ketones", "URINALYSIS", "0", "", "", "", "0", 0, "", null, null, "NORMAL", "", 4.0, "WEEK 2", 14, "TREATMENT", "2012-12-13T14:05", 14], [162, "CDISCPILOT01", "LB", "01-701-1115", 167, "KETONES", "Ketones", "URINALYSIS", "0", "", "", "", "0", 0, "", null, null, "NORMAL", "", 8.0, "WEEK 8", 56, "TREATMENT", "2013-01-23T12:13", 55], [163, "CDISCPILOT01", "LB", "01-701-1115", 27, "PH", "pH", "URINALYSIS", "5.0", "", "5", "8", "5", 5, "", 5, 8, "NORMAL", "Y", 1.0, "SCREENING 1", -7, "SCREENING", "2012-11-23T11:20", -7], [164, "CDISCPILOT01", "LB", "01-701-1115", 64, "PH", "pH", "URINALYSIS", "5.0", "", "5", "8", "5", 5, "", 5, 8, "NORMAL", "", 4.0, "WEEK 2", 14, "TREATMENT", "2012-12-13T14:05", 14], [165, "CDISCPILOT01", "LB", "01-701-1115", 174, "PH", "pH", "URINALYSIS", "5.0", "", "5", "8", "5", 5, "", 5, 8, "NORMAL", "", 8.0, "WEEK 8", 56, "TREATMENT", "2013-01-23T12:13", 55], [166, "CDISCPILOT01", "LB", "01-701-1115", 32, "SPGRAV", "Specific Gravity", "URINALYSIS", "1.017", "", "1.006", "1.03", "1.017", 1, "", 1, 1, "NORMAL", "Y", 1.0, "SCREENING 1", -7, "SCREENING", "2012-11-23T11:20", -7], [167, "CDISCPILOT01", "LB", "01-701-1115", 69, "SPGRAV", "Specific Gravity", "URINALYSIS", "1.023", "", "1.006", "1.03", "1.023", 1, "", 1, 1, "NORMAL", "", 4.0, "WEEK 2", 14, "TREATMENT", "2012-12-13T14:05", 14], [168, "CDISCPILOT01", "LB", "01-701-1115", 179, "SPGRAV", "Specific Gravity", "URINALYSIS", "1.023", "", "1.006", "1.03", "1.023", 1, "", 1, 1, "NORMAL", "", 8.0, "WEEK 8", 56, "TREATMENT", "2013-01-23T12:13", 55], [169, "CDISCPILOT01", "LB", "01-701-1115", 33, "TSH", "Thyrotropin", "OTHER", "2.63", "mIU/L", "0.32", "5", "2.63", 2, "mU/L", 0, 5, "NORMAL", "Y", 1.0, "SCREENING 1", -7, "SCREENING", "2012-11-23T11:20", -7], [170, "CDISCPILOT01", "LB", "01-701-1115", 35, "UROBIL", "Urobilinogen", "URINALYSIS", "0", "", "", "", "0", 0, "", null, null, "NORMAL", "Y", 1.0, "SCREENING 1", -7, "SCREENING", "2012-11-23T11:20", -7], [171, "CDISCPILOT01", "LB", "01-701-1115", 71, "UROBIL", "Urobilinogen", "URINALYSIS", "0", "", "", "", "0", 0, "", null, null, "NORMAL", "", 4.0, "WEEK 2", 14, "TREATMENT", "2012-12-13T14:05", 14], [172, "CDISCPILOT01", "LB", "01-701-1115", 181, "UROBIL", "Urobilinogen", "URINALYSIS", "0", "", "", "", "0", 0, "", null, null, "NORMAL", "", 8.0, "WEEK 8", 56, "TREATMENT", "2013-01-23T12:13", 55], [173, "CDISCPILOT01", "LB", "01-701-1115", 36, "VITB12", "Vitamin B12", "OTHER", "641", "ng/L", "200", "900", "472.9298", 472, "pmol/L", 148, 664, "NORMAL", "Y", 1.0, "SCREENING 1", -7, "SCREENING", "2012-11-23T11:20", -7], [174, "CDISCPILOT01", "LB", "01-701-1118", 12, "COLOR", "Color", "URINALYSIS", "N", "", "", "", "N", null, "", null, null, "NORMAL", "Y", 1.0, "SCREENING 1", -7, "SCREENING", "2014-02-27T10:32", -13], [175, "CDISCPILOT01", "LB", "01-701-1118", 49, "COLOR", "Color", "URINALYSIS", "N", "", "", "", "N", null, "", null, null, "NORMAL", "", 4.0, "WEEK 2", 14, "TREATMENT", "2014-03-26T10:50", 15], [176, "CDISCPILOT01", "LB", "01-701-1118", 174, "COLOR", "Color", "URINALYSIS", "N", "", "", "", "N", null, "", null, null, "NORMAL", "", 9.0, "WEEK 12", 84, "TREATMENT", "2014-06-05T08:14", 86], [177, "CDISCPILOT01", "LB", "01-701-1118", 269, "COLOR", "Color", "URINALYSIS", "N", "", "", "", "N", null, "", null, null, "NORMAL", "", 12.0, "WEEK 24", 168, "TREATMENT", "2014-08-27T11:27", 169], [178, "CDISCPILOT01", "LB", "01-701-1118", 20, "KETONES", "Ketones", "URINALYSIS", "0", "", "", "", "0", 0, "", null, null, "NORMAL", "Y", 1.0, "SCREENING 1", -7, "SCREENING", "2014-02-27T10:32", -13], [179, "CDISCPILOT01", "LB", "01-701-1118", 57, "KETONES", "Ketones", "URINALYSIS", "0", "", "", "", "0", 0, "", null, null, "NORMAL", "", 4.0, "WEEK 2", 14, "TREATMENT", "2014-03-26T10:50", 15], [180, "CDISCPILOT01", "LB", "01-701-1118", 182, "KETONES", "Ketones", "URINALYSIS", "0", "", "", "", "0", 0, "", null, null, "NORMAL", "", 9.0, "WEEK 12", 84, "TREATMENT", "2014-06-05T08:14", 86], [181, "CDISCPILOT01", "LB", "01-701-1118", 277, "KETONES", "Ketones", "URINALYSIS", "0", "", "", "", "0", 0, "", null, null, "NORMAL", "", 12.0, "WEEK 24", 168, "TREATMENT", "2014-08-27T11:27", 169], [182, "CDISCPILOT01", "LB", "01-701-1118", 27, "PH", "pH", "URINALYSIS", "6.0", "", "5", "8", "6", 6, "", 5, 8, "NORMAL", "Y", 1.0, "SCREENING 1", -7, "SCREENING", "2014-02-27T10:32", -13], [183, "CDISCPILOT01", "LB", "01-701-1118", 64, "PH", "pH", "URINALYSIS", "6.0", "", "5", "8", "6", 6, "", 5, 8, "NORMAL", "", 4.0, "WEEK 2", 14, "TREATMENT", "2014-03-26T10:50", 15], [184, "CDISCPILOT01", "LB", "01-701-1118", 189, "PH", "pH", "URINALYSIS", "5.0", "", "5", "8", "5", 5, "", 5, 8, "NORMAL", "", 9.0, "WEEK 12", 84, "TREATMENT", "2014-06-05T08:14", 86], [185, "CDISCPILOT01", "LB", "01-701-1118", 284, "PH", "pH", "URINALYSIS", "6.0", "", "5", "8", "6", 6, "", 5, 8, "NORMAL", "", 12.0, "WEEK 24", 168, "TREATMENT", "2014-08-27T11:27", 169], [186, "CDISCPILOT01", "LB", "01-701-1118", 32, "SPGRAV", "Specific Gravity", "URINALYSIS", "1.030", "", "1.01", "1.034", "1.03", 1, "", 1, 1, "NORMAL", "Y", 1.0, "SCREENING 1", -7, "SCREENING", "2014-02-27T10:32", -13], [187, "CDISCPILOT01", "LB", "01-701-1118", 69, "SPGRAV", "Specific Gravity", "URINALYSIS", "1.033", "", "1.01", "1.034", "1.033", 1, "", 1, 1, "NORMAL", "", 4.0, "WEEK 2", 14, "TREATMENT", "2014-03-26T10:50", 15], [188, "CDISCPILOT01", "LB", "01-701-1118", 194, "SPGRAV", "Specific Gravity", "URINALYSIS", "1.030", "", "1.01", "1.034", "1.03", 1, "", 1, 1, "NORMAL", "", 9.0, "WEEK 12", 84, "TREATMENT", "2014-06-05T08:14", 86], [189, "CDISCPILOT01", "LB", "01-701-1118", 289, "SPGRAV", "Specific Gravity", "URINALYSIS", "1.026", "", "1.01", "1.034", "1.026", 1, "", 1, 1, "NORMAL", "", 12.0, "WEEK 24", 168, "TREATMENT", "2014-08-27T11:27", 169], [190, "CDISCPILOT01", "LB", "01-701-1118", 33, "TSH", "Thyrotropin", "OTHER", "1.85", "mIU/L", "0.32", "5", "1.85", 1, "mU/L", 0, 5, "NORMAL", "Y", 1.0, "SCREENING 1", -7, "SCREENING", "2014-02-27T10:32", -13], [191, "CDISCPILOT01", "LB", "01-701-1118", 35, "UROBIL", "Urobilinogen", "URINALYSIS", "0", "", "", "", "0", 0, "", null, null, "NORMAL", "Y", 1.0, "SCREENING 1", -7, "SCREENING", "2014-02-27T10:32", -13], [192, "CDISCPILOT01", "LB", "01-701-1118", 71, "UROBIL", "Urobilinogen", "URINALYSIS", "0", "", "", "", "0", 0, "", null, null, "NORMAL", "", 4.0, "WEEK 2", 14, "TREATMENT", "2014-03-26T10:50", 15], [193, "CDISCPILOT01", "LB", "01-701-1118", 196, "UROBIL", "Urobilinogen", "URINALYSIS", "0", "", "", "", "0", 0, "", null, null, "NORMAL", "", 9.0, "WEEK 12", 84, "TREATMENT", "2014-06-05T08:14", 86], [194, "CDISCPILOT01", "LB", "01-701-1118", 291, "UROBIL", "Urobilinogen", "URINALYSIS", "0", "", "", "", "0", 0, "", null, null, "NORMAL", "", 12.0, "WEEK 24", 168, "TREATMENT", "2014-08-27T11:27", 169], [195, "CDISCPILOT01", "LB", "01-701-1118", 36, "VITB12", "Vitamin B12", "OTHER", "289", "ng/L", "200", "900", "213.2242", 213, "pmol/L", 148, 664, "NORMAL", "Y", 1.0, "SCREENING 1", -7, "SCREENING", "2014-02-27T10:32", -13], [196, "CDISCPILOT01", "LB", "01-701-1130", 12, "COLOR", "Color", "URINALYSIS", "N", "", "", "", "N", null, "", null, null, "NORMAL", "Y", 1.0, "SCREENING 1", -7, "SCREENING", "2014-02-09T12:01", -6], [197, "CDISCPILOT01", "LB", "01-701-1130", 49, "COLOR", "Color", "URINALYSIS", "N", "", "", "", "N", null, "", null, null, "NORMAL", "", 4.0, "WEEK 2", 14, "TREATMENT", "2014-03-01T08:30", 15], [198, "CDISCPILOT01", "LB", "01-701-1130", 174, "COLOR", "Color", "URINALYSIS", "N", "", "", "", "N", null, "", null, null, "NORMAL", "", 9.0, "WEEK 12", 84, "TREATMENT", "2014-05-16T11:37", 91], [199, "CDISCPILOT01", "LB", "01-701-1130", 269, "COLOR", "Color", "URINALYSIS", "N", "", "", "", "N", null, "", null, null, "NORMAL", "", 12.0, "WEEK 24", 168, "TREATMENT", "2014-08-02T13:50", 169], [200, "CDISCPILOT01", "LB", "01-701-1130", 20, "KETONES", "Ketones", "URINALYSIS", "0", "", "", "", "0", 0, "", null, null, "NORMAL", "Y", 1.0, "SCREENING 1", -7, "SCREENING", "2014-02-09T12:01", -6], [201, "CDISCPILOT01", "LB", "01-701-1130", 57, "KETONES", "Ketones", "URINALYSIS", "0", "", "", "", "0", 0, "", null, null, "NORMAL", "", 4.0, "WEEK 2", 14, "TREATMENT", "2014-03-01T08:30", 15], [202, "CDISCPILOT01", "LB", "01-701-1130", 182, "KETONES", "Ketones", "URINALYSIS", "0", "", "", "", "0", 0, "", null, null, "NORMAL", "", 9.0, "WEEK 12", 84, "TREATMENT", "2014-05-16T11:37", 91], [203, "CDISCPILOT01", "LB", "01-701-1130", 277, "KETONES", "Ketones", "URINALYSIS", "0", "", "", "", "0", 0, "", null, null, "NORMAL", "", 12.0, "WEEK 24", 168, "TREATMENT", "2014-08-02T13:50", 169], [204, "CDISCPILOT01", "LB", "01-701-1130", 27, "PH", "pH", "URINALYSIS", "5.0", "", "5", "8", "5", 5, "", 5, 8, "NORMAL", "Y", 1.0, "SCREENING 1", -7, "SCREENING", "2014-02-09T12:01", -6], [205, "CDISCPILOT01", "LB", "01-701-1130", 64, "PH", "pH", "URINALYSIS", "5.0", "", "5", "8", "5", 5, "", 5, 8, "NORMAL", "", 4.0, "WEEK 2", 14, "TREATMENT", "2014-03-01T08:30", 15], [206, "CDISCPILOT01", "LB", "01-701-1130", 189, "PH", "pH", "URINALYSIS", "5.0", "", "5", "8", "5", 5, "", 5, 8, "NORMAL", "", 9.0, "WEEK 12", 84, "TREATMENT", "2014-05-16T11:37", 91], [207, "CDISCPILOT01", "LB", "01-701-1130", 284, "PH", "pH", "URINALYSIS", "6.0", "", "5", "8", "6", 6, "", 5, 8, "NORMAL", "", 12.0, "WEEK 24", 168, "TREATMENT", "2014-08-02T13:50", 169], [208, "CDISCPILOT01", "LB", "01-701-1130", 32, "SPGRAV", "Specific Gravity", "URINALYSIS", "1.018", "", "1.006", "1.03", "1.018", 1, "", 1, 1, "NORMAL", "Y", 1.0, "SCREENING 1", -7, "SCREENING", "2014-02-09T12:01", -6], [209, "CDISCPILOT01", "LB", "01-701-1130", 69, "SPGRAV", "Specific Gravity", "URINALYSIS", "1.018", "", "1.006", "1.03", "1.018", 1, "", 1, 1, "NORMAL", "", 4.0, "WEEK 2", 14, "TREATMENT", "2014-03-01T08:30", 15], [210, "CDISCPILOT01", "LB", "01-701-1130", 194, "SPGRAV", "Specific Gravity", "URINALYSIS", "1.016", "", "1.006", "1.03", "1.016", 1, "", 1, 1, "NORMAL", "", 9.0, "WEEK 12", 84, "TREATMENT", "2014-05-16T11:37", 91], [211, "CDISCPILOT01", "LB", "01-701-1130", 289, "SPGRAV", "Specific Gravity", "URINALYSIS", "1.016", "", "1.006", "1.03", "1.016", 1, "", 1, 1, "NORMAL", "", 12.0, "WEEK 24", 168, "TREATMENT", "2014-08-02T13:50", 169], [212, "CDISCPILOT01", "LB", "01-701-1130", 33, "TSH", "Thyrotropin", "OTHER", "3.59", "mIU/L", "0.32", "5", "3.59", 3, "mU/L", 0, 5, "NORMAL", "Y", 1.0, "SCREENING 1", -7, "SCREENING", "2014-02-09T12:01", -6], [213, "CDISCPILOT01", "LB", "01-701-1130", 35, "UROBIL", "Urobilinogen", "URINALYSIS", "0", "", "", "", "0", 0, "", null, null, "NORMAL", "Y", 1.0, "SCREENING 1", -7, "SCREENING", "2014-02-09T12:01", -6], [214, "CDISCPILOT01", "LB", "01-701-1130", 71, "UROBIL", "Urobilinogen", "URINALYSIS", "0", "", "", "", "0", 0, "", null, null, "NORMAL", "", 4.0, "WEEK 2", 14, "TREATMENT", "2014-03-01T08:30", 15], [215, "CDISCPILOT01", "LB", "01-701-1130", 196, "UROBIL", "Urobilinogen", "URINALYSIS", "0", "", "", "", "0", 0, "", null, null, "NORMAL", "", 9.0, "WEEK 12", 84, "TREATMENT", "2014-05-16T11:37", 91], [216, "CDISCPILOT01", "LB", "01-701-1130", 291, "UROBIL", "Urobilinogen", "URINALYSIS", "0", "", "", "", "0", 0, "", null, null, "NORMAL", "", 12.0, "WEEK 24", 168, "TREATMENT", "2014-08-02T13:50", 169], [217, "CDISCPILOT01", "LB", "01-701-1130", 36, "VITB12", "Vitamin B12", "OTHER", "355", "ng/L", "200", "900", "261.919", 261, "pmol/L", 148, 664, "NORMAL", "Y", 1.0, "SCREENING 1", -7, "SCREENING", "2014-02-09T12:01", -6], [218, "CDISCPILOT01", "LB", "01-701-1133", 12, "COLOR", "Color", "URINALYSIS", "N", "", "", "", "N", null, "", null, null, "NORMAL", "Y", 1.0, "SCREENING 1", -7, "SCREENING", "2012-10-23T10:57", -5], [219, "CDISCPILOT01", "LB", "01-701-1133", 39, "COLOR", "Color", "URINALYSIS", "N", "", "", "", "N", null, "", null, null, "NORMAL", "", 4.0, "WEEK 2", 14, "TREATMENT", "2012-11-12T10:15", 16], [220, "CDISCPILOT01", "LB", "01-701-1133", 156, "COLOR", "Color", "URINALYSIS", "N", "", "", "", "N", null, "", null, null, "NORMAL", "", 9.0, "WEEK 12", 84, "TREATMENT", "2013-01-22T14:05", 87], [221, "CDISCPILOT01", "LB", "01-701-1133", 251, "COLOR", "Color", "URINALYSIS", "N", "", "", "", "N", null, "", null, null, "NORMAL", "", 12.0, "WEEK 24", 168, "TREATMENT", "2013-04-18T15:30", 173], [222, "CDISCPILOT01", "LB", "01-701-1133", 20, "KETONES", "Ketones", "URINALYSIS", "0", "", "", "", "0", 0, "", null, null, "NORMAL", "Y", 1.0, "SCREENING 1", -7, "SCREENING", "2012-10-23T10:57", -5], [223, "CDISCPILOT01", "LB", "01-701-1133", 43, "KETONES", "Ketones", "URINALYSIS", "0", "", "", "", "0", 0, "", null, null, "NORMAL", "", 4.0, "WEEK 2", 14, "TREATMENT", "2012-11-12T10:15", 16], [224, "CDISCPILOT01", "LB", "01-701-1133", 164, "KETONES", "Ketones", "URINALYSIS", "0", "", "", "", "0", 0, "", null, null, "NORMAL", "", 9.0, "WEEK 12", 84, "TREATMENT", "2013-01-22T14:05", 87], [225, "CDISCPILOT01", "LB", "01-701-1133", 259, "KETONES", "Ketones", "URINALYSIS", "0", "", "", "", "0", 0, "", null, null, "NORMAL", "", 12.0, "WEEK 24", 168, "TREATMENT", "2013-04-18T15:30", 173], [226, "CDISCPILOT01", "LB", "01-701-1133", 27, "PH", "pH", "URINALYSIS", "5.0", "", "5", "8", "5", 5, "", 5, 8, "NORMAL", "Y", 1.0, "SCREENING 1", -7, "SCREENING", "2012-10-23T10:57", -5], [227, "CDISCPILOT01", "LB", "01-701-1133", 49, "PH", "pH", "URINALYSIS", "5.0", "", "5", "8", "5", 5, "", 5, 8, "NORMAL", "", 4.0, "WEEK 2", 14, "TREATMENT", "2012-11-12T10:15", 16], [228, "CDISCPILOT01", "LB", "01-701-1133", 171, "PH", "pH", "URINALYSIS", "5.0", "", "5", "8", "5", 5, "", 5, 8, "NORMAL", "", 9.0, "WEEK 12", 84, "TREATMENT", "2013-01-22T14:05", 87], [229, "CDISCPILOT01", "LB", "01-701-1133", 266, "PH", "pH", "URINALYSIS", "6.0", "", "5", "8", "6", 6, "", 5, 8, "NORMAL", "", 12.0, "WEEK 24", 168, "TREATMENT", "2013-04-18T15:30", 173], [230, "CDISCPILOT01", "LB", "01-701-1133", 32, "SPGRAV", "Specific Gravity", "URINALYSIS", "1.011", "", "1.006", "1.03", "1.011", 1, "", 1, 1, "NORMAL", "Y", 1.0, "SCREENING 1", -7, "SCREENING", "2012-10-23T10:57", -5], [231, "CDISCPILOT01", "LB", "01-701-1133", 52, "SPGRAV", "Specific Gravity", "URINALYSIS", "1.023", "", "1.006", "1.03", "1.023", 1, "", 1, 1, "NORMAL", "", 4.0, "WEEK 2", 14, "TREATMENT", "2012-11-12T10:15", 16], [232, "CDISCPILOT01", "LB", "01-701-1133", 176, "SPGRAV", "Specific Gravity", "URINALYSIS", "1.030", "", "1.006", "1.03", "1.03", 1, "", 1, 1, "NORMAL", "", 9.0, "WEEK 12", 84, "TREATMENT", "2013-01-22T14:05", 87], [233, "CDISCPILOT01", "LB", "01-701-1133", 271, "SPGRAV", "Specific Gravity", "URINALYSIS", "1.029", "", "1.006", "1.03", "1.029", 1, "", 1, 1, "NORMAL", "", 12.0, "WEEK 24", 168, "TREATMENT", "2013-04-18T15:30", 173], [234, "CDISCPILOT01", "LB", "01-701-1133", 33, "TSH", "Thyrotropin", "OTHER", "1.09", "mIU/L", "0.32", "5", "1.09", 1, "mU/L", 0, 5, "NORMAL", "Y", 1.0, "SCREENING 1", -7, "SCREENING", "2012-10-23T10:57", -5], [235, "CDISCPILOT01", "LB", "01-701-1133", 35, "UROBIL", "Urobilinogen", "URINALYSIS", "0", "", "", "", "0", 0, "", null, null, "NORMAL", "Y", 1.0, "SCREENING 1", -7, "SCREENING", "2012-10-23T10:57", -5], [236, "CDISCPILOT01", "LB", "01-701-1133", 53, "UROBIL", "Urobilinogen", "URINALYSIS", "0", "", "", "", "0", 0, "", null, null, "NORMAL", "", 4.0, "WEEK 2", 14, "TREATMENT", "2012-11-12T10:15", 16], [237, "CDISCPILOT01", "LB", "01-701-1133", 178, "UROBIL", "Urobilinogen", "URINALYSIS", "0", "", "", "", "0", 0, "", null, null, "NORMAL", "", 9.0, "WEEK 12", 84, "TREATMENT", "2013-01-22T14:05", 87], [238, "CDISCPILOT01", "LB", "01-701-1133", 273, "UROBIL", "Urobilinogen", "URINALYSIS", "0", "", "", "", "0", 0, "", null, null, "NORMAL", "", 12.0, "WEEK 24", 168, "TREATMENT", "2013-04-18T15:30", 173], [239, "CDISCPILOT01", "LB", "01-701-1133", 36, "VITB12", "Vitamin B12", "OTHER", "288", "ng/L", "200", "900", "212.4864", 212, "pmol/L", 148, 664, "NORMAL", "Y", 1.0, "SCREENING 1", -7, "SCREENING", "2012-10-23T10:57", -5], [240, "CDISCPILOT01", "LB", "01-701-1146", 12, "COLOR", "Color", "URINALYSIS", "N", "", "", "", "N", null, "", null, null, "NORMAL", "Y", 1.0, "SCREENING 1", -7, "SCREENING", "2013-05-07T13:52", -13], [241, "CDISCPILOT01", "LB", "01-701-1146", 49, "COLOR", "Color", "URINALYSIS", "N", "", "", "", "N", null, "", null, null, "NORMAL", "", 4.0, "WEEK 2", 14, "TREATMENT", "2013-06-03T13:16", 15], [242, "CDISCPILOT01", "LB", "01-701-1146", 114, "COLOR", "Color", "URINALYSIS", "N", "", "", "", "N", null, "", null, null, "NORMAL", "", 7.0, "WEEK 6", 42, "TREATMENT", "2013-06-30T11:44", 42], [243, "CDISCPILOT01", "LB", "01-701-1146", 20, "KETONES", "Ketones", "URINALYSIS", "0", "", "", "", "0", 0, "", null, null, "NORMAL", "Y", 1.0, "SCREENING 1", -7, "SCREENING", "2013-05-07T13:52", -13], [244, "CDISCPILOT01", "LB", "01-701-1146", 57, "KETONES", "Ketones", "URINALYSIS", "0", "", "", "", "0", 0, "", null, null, "NORMAL", "", 4.0, "WEEK 2", 14, "TREATMENT", "2013-06-03T13:16", 15], [245, "CDISCPILOT01", "LB", "01-701-1146", 122, "KETONES", "Ketones", "URINALYSIS", "0", "", "", "", "0", 0, "", null, null, "NORMAL", "", 7.0, "WEEK 6", 42, "TREATMENT", "2013-06-30T11:44", 42], [246, "CDISCPILOT01", "LB", "01-701-1146", 27, "PH", "pH", "URINALYSIS", "5.0", "", "5", "8", "5", 5, "", 5, 8, "NORMAL", "Y", 1.0, "SCREENING 1", -7, "SCREENING", "2013-05-07T13:52", -13], [247, "CDISCPILOT01", "LB", "01-701-1146", 64, "PH", "pH", "URINALYSIS", "5.0", "", "5", "8", "5", 5, "", 5, 8, "NORMAL", "", 4.0, "WEEK 2", 14, "TREATMENT", "2013-06-03T13:16", 15], [248, "CDISCPILOT01", "LB", "01-701-1146", 129, "PH", "pH", "URINALYSIS", "5.0", "", "5", "8", "5", 5, "", 5, 8, "NORMAL", "", 7.0, "WEEK 6", 42, "TREATMENT", "2013-06-30T11:44", 42], [249, "CDISCPILOT01", "LB", "01-701-1146", 32, "SPGRAV", "Specific Gravity", "URINALYSIS", "1.008", "", "1.006", "1.03", "1.008", 1, "", 1, 1, "NORMAL", "Y", 1.0, "SCREENING 1", -7, "SCREENING", "2013-05-07T13:52", -13], [250, "CDISCPILOT01", "LB", "01-701-1146", 69, "SPGRAV", "Specific Gravity", "URINALYSIS", "1.011", "", "1.006", "1.03", "1.011", 1, "", 1, 1, "NORMAL", "", 4.0, "WEEK 2", 14, "TREATMENT", "2013-06-03T13:16", 15], [251, "CDISCPILOT01", "LB", "01-701-1146", 134, "SPGRAV", "Specific Gravity", "URINALYSIS", "1.014", "", "1.006", "1.03", "1.014", 1, "", 1, 1, "NORMAL", "", 7.0, "WEEK 6", 42, "TREATMENT", "2013-06-30T11:44", 42], [252, "CDISCPILOT01", "LB", "01-701-1146", 33, "TSH", "Thyrotropin", "OTHER", "1.98", "mIU/L", "0.32", "5", "1.98", 1, "mU/L", 0, 5, "NORMAL", "Y", 1.0, "SCREENING 1", -7, "SCREENING", "2013-05-07T13:52", -13], [253, "CDISCPILOT01", "LB", "01-701-1146", 35, "UROBIL", "Urobilinogen", "URINALYSIS", "0", "", "", "", "0", 0, "", null, null, "NORMAL", "Y", 1.0, "SCREENING 1", -7, "SCREENING", "2013-05-07T13:52", -13], [254, "CDISCPILOT01", "LB", "01-701-1146", 71, "UROBIL", "Urobilinogen", "URINALYSIS", "0", "", "", "", "0", 0, "", null, null, "NORMAL", "", 4.0, "WEEK 2", 14, "TREATMENT", "2013-06-03T13:16", 15], [255, "CDISCPILOT01", "LB", "01-701-1146", 136, "UROBIL", "Urobilinogen", "URINALYSIS", "0", "", "", "", "0", 0, "", null, null, "NORMAL", "", 7.0, "WEEK 6", 42, "TREATMENT", "2013-06-30T11:44", 42], [256, "CDISCPILOT01", "LB", "01-701-1146", 36, "VITB12", "Vitamin B12", "OTHER", "381", "ng/L", "200", "900", "281.1018", 281, "pmol/L", 148, 664, "NORMAL", "Y", 1.0, "SCREENING 1", -7, "SCREENING", "2013-05-07T13:52", -13], [257, "CDISCPILOT01", "LB", "01-701-1148", 12, "COLOR", "Color", "URINALYSIS", "N", "", "", "", "N", null, "", null, null, "NORMAL", "Y", 1.0, "SCREENING 1", -7, "SCREENING", "2013-08-14T13:04", -9], [258, "CDISCPILOT01", "LB", "01-701-1148", 49, "COLOR", "Color", "URINALYSIS", "N", "", "", "", "N", null, "", null, null, "NORMAL", "", 4.0, "WEEK 2", 14, "TREATMENT", "2013-09-05T15:43", 14], [259, "CDISCPILOT01", "LB", "01-701-1148", 174, "COLOR", "Color", "URINALYSIS", "N", "", "", "", "N", null, "", null, null, "NORMAL", "", 9.0, "WEEK 12", 84, "TREATMENT", "2013-11-17T10:59", 87], [260, "CDISCPILOT01", "LB", "01-701-1148", 269, "COLOR", "Color", "URINALYSIS", "N", "", "", "", "N", null, "", null, null, "NORMAL", "", 12.0, "WEEK 24", 168, "TREATMENT", "2014-02-08T14:40", 170], [261, "CDISCPILOT01", "LB", "01-701-1148", 20, "KETONES", "Ketones", "URINALYSIS", "0", "", "", "", "0", 0, "", null, null, "NORMAL", "Y", 1.0, "SCREENING 1", -7, "SCREENING", "2013-08-14T13:04", -9], [262, "CDISCPILOT01", "LB", "01-701-1148", 57, "KETONES", "Ketones", "URINALYSIS", "0", "", "", "", "0", 0, "", null, null, "NORMAL", "", 4.0, "WEEK 2", 14, "TREATMENT", "2013-09-05T15:43", 14], [263, "CDISCPILOT01", "LB", "01-701-1148", 182, "KETONES", "Ketones", "URINALYSIS", "0", "", "", "", "0", 0, "", null, null, "NORMAL", "", 9.0, "WEEK 12", 84, "TREATMENT", "2013-11-17T10:59", 87], [264, "CDISCPILOT01", "LB", "01-701-1148", 277, "KETONES", "Ketones", "URINALYSIS", "0", "", "", "", "0", 0, "", null, null, "NORMAL", "", 12.0, "WEEK 24", 168, "TREATMENT", "2014-02-08T14:40", 170], [265, "CDISCPILOT01", "LB", "01-701-1148", 27, "PH", "pH", "URINALYSIS", "5.0", "", "5", "8", "5", 5, "", 5, 8, "NORMAL", "Y", 1.0, "SCREENING 1", -7, "SCREENING", "2013-08-14T13:04", -9], [266, "CDISCPILOT01", "LB", "01-701-1148", 64, "PH", "pH", "URINALYSIS", "7.0", "", "5", "8", "7", 7, "", 5, 8, "NORMAL", "", 4.0, "WEEK 2", 14, "TREATMENT", "2013-09-05T15:43", 14], [267, "CDISCPILOT01", "LB", "01-701-1148", 189, "PH", "pH", "URINALYSIS", "5.0", "", "5", "8", "5", 5, "", 5, 8, "NORMAL", "", 9.0, "WEEK 12", 84, "TREATMENT", "2013-11-17T10:59", 87], [268, "CDISCPILOT01", "LB", "01-701-1148", 284, "PH", "pH", "URINALYSIS", "5.0", "", "5", "8", "5", 5, "", 5, 8, "NORMAL", "", 12.0, "WEEK 24", 168, "TREATMENT", "2014-02-08T14:40", 170], [269, "CDISCPILOT01", "LB", "01-701-1148", 32, "SPGRAV", "Specific Gravity", "URINALYSIS", "1.026", "", "1.01", "1.034", "1.026", 1, "", 1, 1, "NORMAL", "Y", 1.0, "SCREENING 1", -7, "SCREENING", "2013-08-14T13:04", -9], [270, "CDISCPILOT01", "LB", "01-701-1148", 69, "SPGRAV", "Specific Gravity", "URINALYSIS", "1.016", "", "1.01", "1.034", "1.016", 1, "", 1, 1, "NORMAL", "", 4.0, "WEEK 2", 14, "TREATMENT", "2013-09-05T15:43", 14], [271, "CDISCPILOT01", "LB", "01-701-1148", 194, "SPGRAV", "Specific Gravity", "URINALYSIS", "1.017", "", "1.01", "1.034", "1.017", 1, "", 1, 1, "NORMAL", "", 9.0, "WEEK 12", 84, "TREATMENT", "2013-11-17T10:59", 87], [272, "CDISCPILOT01", "LB", "01-701-1148", 289, "SPGRAV", "Specific Gravity", "URINALYSIS", "1.020", "", "1.01", "1.034", "1.02", 1, "", 1, 1, "NORMAL", "", 12.0, "WEEK 24", 168, "TREATMENT", "2014-02-08T14:40", 170], [273, "CDISCPILOT01", "LB", "01-701-1148", 33, "TSH", "Thyrotropin", "OTHER", "1.81", "mIU/L", "0.32", "5", "1.81", 1, "mU/L", 0, 5, "NORMAL", "Y", 1.0, "SCREENING 1", -7, "SCREENING", "2013-08-14T13:04", -9], [274, "CDISCPILOT01", "LB", "01-701-1148", 35, "UROBIL", "Urobilinogen", "URINALYSIS", "0", "", "", "", "0", 0, "", null, null, "NORMAL", "Y", 1.0, "SCREENING 1", -7, "SCREENING", "2013-08-14T13:04", -9], [275, "CDISCPILOT01", "LB", "01-701-1148", 71, "UROBIL", "Urobilinogen", "URINALYSIS", "0", "", "", "", "0", 0, "", null, null, "NORMAL", "", 4.0, "WEEK 2", 14, "TREATMENT", "2013-09-05T15:43", 14], [276, "CDISCPILOT01", "LB", "01-701-1148", 196, "UROBIL", "Urobilinogen", "URINALYSIS", "0", "", "", "", "0", 0, "", null, null, "NORMAL", "", 9.0, "WEEK 12", 84, "TREATMENT", "2013-11-17T10:59", 87], [277, "CDISCPILOT01", "LB", "01-701-1148", 291, "UROBIL", "Urobilinogen", "URINALYSIS", "0", "", "", "", "0", 0, "", null, null, "NORMAL", "", 12.0, "WEEK 24", 168, "TREATMENT", "2014-02-08T14:40", 170], [278, "CDISCPILOT01", "LB", "01-701-1148", 36, "VITB12", "Vitamin B12", "OTHER", "500", "ng/L", "200", "900", "368.9", 368, "pmol/L", 148, 664, "NORMAL", "Y", 1.0, "SCREENING 1", -7, "SCREENING", "2013-08-14T13:04", -9], [279, "CDISCPILOT01", "LB", "01-701-1153", 12, "COLOR", "Color", "URINALYSIS", "N", "", "", "", "N", null, "", null, null, "NORMAL", "Y", 1.0, "SCREENING 1", -7, "SCREENING", "2013-09-06T14:50", -17], [280, "CDISCPILOT01", "LB", "01-701-1153", 49, "COLOR", "Color", "URINALYSIS", "N", "", "", "", "N", null, "", null, null, "NORMAL", "", 4.0, "WEEK 2", 14, "TREATMENT", "2013-10-08T11:00", 16], [281, "CDISCPILOT01", "LB", "01-701-1153", 103, "COLOR", "Color", "URINALYSIS", "N", "", "", "", "N", null, "", null, null, "NORMAL", "", 5.1, "UNSCHEDULED 5.1", null, "TREATMENT", "2013-10-19T12:22", 27], [282, "CDISCPILOT01", "LB", "01-701-1153", 179, "COLOR", "Color", "URINALYSIS", "N", "", "", "", "N", null, "", null, null, "NORMAL", "", 9.0, "WEEK 12", 84, "TREATMENT", "2013-12-16T15:22", 85], [283, "CDISCPILOT01", "LB", "01-701-1153", 203, "COLOR", "Color", "URINALYSIS", "N", "", "", "", "N", null, "", null, null, "NORMAL", "", 9.2, "UNSCHEDULED 9.2", null, "TREATMENT", "2013-12-18T06:30", 87], [284, "CDISCPILOT01", "LB", "01-701-1153", 208, "COLOR", "Color", "URINALYSIS", "N", "", "", "", "N", null, "", null, null, "NORMAL", "", 9.299999999999999, "UNSCHEDULED 9.3", null, "TREATMENT", "2014-01-08T11:05", 108], [285, "CDISCPILOT01", "LB", "01-701-1153", 284, "COLOR", "Color", "URINALYSIS", "N", "", "", "", "N", null, "", null, null, "NORMAL", "", 12.0, "WEEK 24", 168, "TREATMENT", "2014-03-11T11:58", 170], [286, "CDISCPILOT01", "LB", "01-701-1153", 20, "KETONES", "Ketones", "URINALYSIS", "0", "", "", "", "0", 0, "", null, null, "NORMAL", "Y", 1.0, "SCREENING 1", -7, "SCREENING", "2013-09-06T14:50", -17], [287, "CDISCPILOT01", "LB", "01-701-1153", 57, "KETONES", "Ketones", "URINALYSIS", "0", "", "", "", "0", 0, "", null, null, "NORMAL", "", 4.0, "WEEK 2", 14, "TREATMENT", "2013-10-08T11:00", 16], [288, "CDISCPILOT01", "LB", "01-701-1153", 104, "KETONES", "Ketones", "URINALYSIS", "0", "", "", "", "0", 0, "", null, null, "NORMAL", "", 5.1, "UNSCHEDULED 5.1", null, "TREATMENT", "2013-10-19T12:22", 27], [289, "CDISCPILOT01", "LB", "01-701-1153", 187, "KETONES", "Ketones", "URINALYSIS", "1", "", "", "", "1", 1, "", null, null, "ABNORMAL", "", 9.0, "WEEK 12", 84, "TREATMENT", "2013-12-16T15:22", 85], [290, "CDISCPILOT01", "LB", "01-701-1153", 204, "KETONES", "Ketones", "URINALYSIS", "0", "", "", "", "0", 0, "", null, null, "NORMAL", "", 9.2, "UNSCHEDULED 9.2", null, "TREATMENT", "2013-12-18T06:30", 87], [291, "CDISCPILOT01", "LB", "01-701-1153", 209, "KETONES", "Ketones", "URINALYSIS", "0", "", "", "", "0", 0, "", null, null, "NORMAL", "", 9.299999999999999, "UNSCHEDULED 9.3", null, "TREATMENT", "2014-01-08T11:05", 108], [292, "CDISCPILOT01", "LB", "01-701-1153", 292, "KETONES", "Ketones", "URINALYSIS", "0", "", "", "", "0", 0, "", null, null, "NORMAL", "", 12.0, "WEEK 24", 168, "TREATMENT", "2014-03-11T11:58", 170], [293, "CDISCPILOT01", "LB", "01-701-1153", 27, "PH", "pH", "URINALYSIS", "5.0", "", "5", "8", "5", 5, "", 5, 8, "NORMAL", "Y", 1.0, "SCREENING 1", -7, "SCREENING", "2013-09-06T14:50", -17], [294, "CDISCPILOT01", "LB", "01-701-1153", 64, "PH", "pH", "URINALYSIS", "5.0", "", "5", "8", "5", 5, "", 5, 8, "NORMAL", "", 4.0, "WEEK 2", 14, "TREATMENT", "2013-10-08T11:00", 16], [295, "CDISCPILOT01", "LB", "01-701-1153", 105, "PH", "pH", "URINALYSIS", "5.0", "", "5", "8", "5", 5, "", 5, 8, "NORMAL", "", 5.1, "UNSCHEDULED 5.1", null, "TREATMENT", "2013-10-19T12:22", 27], [296, "CDISCPILOT01", "LB", "01-701-1153", 194, "PH", "pH", "URINALYSIS", "5.0", "", "5", "8", "5", 5, "", 5, 8, "NORMAL", "", 9.0, "WEEK 12", 84, "TREATMENT", "2013-12-16T15:22", 85], [297, "CDISCPILOT01", "LB", "01-701-1153", 205, "PH", "pH", "URINALYSIS", "5.0", "", "5", "8", "5", 5, "", 5, 8, "NORMAL", "", 9.2, "UNSCHEDULED 9.2", null, "TREATMENT", "2013-12-18T06:30", 87], [298, "CDISCPILOT01", "LB", "01-701-1153", 210, "PH", "pH", "URINALYSIS", "7.0", "", "5", "8", "7", 7, "", 5, 8, "NORMAL", "", 9.299999999999999, "UNSCHEDULED 9.3", null, "TREATMENT", "2014-01-08T11:05", 108], [299, "CDISCPILOT01", "LB", "01-701-1153", 299, "PH", "pH", "URINALYSIS", "7.0", "", "5", "8", "7", 7, "", 5, 8, "NORMAL", "", 12.0, "WEEK 24", 168, "TREATMENT", "2014-03-11T11:58", 170], [300, "CDISCPILOT01", "LB", "01-701-1153", 32, "SPGRAV", "Specific Gravity", "URINALYSIS", "1.003", "", "1.006", "1.03", "1.003", 1, "", 1, 1, "LOW", "Y", 1.0, "SCREENING 1", -7, "SCREENING", "2013-09-06T14:50", -17], [301, "CDISCPILOT01", "LB", "01-701-1153", 69, "SPGRAV", "Specific Gravity", "URINALYSIS", "1.019", "", "1.006", "1.03", "1.019", 1, "", 1, 1, "NORMAL", "", 4.0, "WEEK 2", 14, "TREATMENT", "2013-10-08T11:00", 16], [302, "CDISCPILOT01", "LB", "01-701-1153", 106, "SPGRAV", "Specific Gravity", "URINALYSIS", "1.019", "", "1.006", "1.03", "1.019", 1, "", 1, 1, "NORMAL", "", 5.1, "UNSCHEDULED 5.1", null, "TREATMENT", "2013-10-19T12:22", 27], [303, "CDISCPILOT01", "LB", "01-701-1153", 199, "SPGRAV", "Specific Gravity", "URINALYSIS", "1.023", "", "1.006", "1.03", "1.023", 1, "", 1, 1, "NORMAL", "", 9.0, "WEEK 12", 84, "TREATMENT", "2013-12-16T15:22", 85], [304, "CDISCPILOT01", "LB", "01-701-1153", 206, "SPGRAV", "Specific Gravity", "URINALYSIS", "1.011", "", "1.006", "1.03", "1.011", 1, "", 1, 1, "NORMAL", "", 9.2, "UNSCHEDULED 9.2", null, "TREATMENT", "2013-12-18T06:30", 87], [305, "CDISCPILOT01", "LB", "01-701-1153", 211, "SPGRAV", "Specific Gravity", "URINALYSIS", "1.012", "", "1.006", "1.03", "1.012", 1, "", 1, 1, "NORMAL", "", 9.299999999999999, "UNSCHEDULED 9.3", null, "TREATMENT", "2014-01-08T11:05", 108], [306, "CDISCPILOT01", "LB", "01-701-1153", 304, "SPGRAV", "Specific Gravity", "URINALYSIS", "1.010", "", "1.006", "1.03", "1.01", 1, "", 1, 1, "NORMAL", "", 12.0, "WEEK 24", 168, "TREATMENT", "2014-03-11T11:58", 170], [307, "CDISCPILOT01", "LB", "01-701-1153", 33, "TSH", "Thyrotropin", "OTHER", "0.38", "mIU/L", "0.32", "5", "0.38", 0, "mU/L", 0, 5, "NORMAL", "Y", 1.0, "SCREENING 1", -7, "SCREENING", "2013-09-06T14:50", -17], [308, "CDISCPILOT01", "LB", "01-701-1153", 35, "UROBIL", "Urobilinogen", "URINALYSIS", "0", "", "", "", "0", 0, "", null, null, "NORMAL", "Y", 1.0, "SCREENING 1", -7, "SCREENING", "2013-09-06T14:50", -17], [309, "CDISCPILOT01", "LB", "01-701-1153", 71, "UROBIL", "Urobilinogen", "URINALYSIS", "0", "", "", "", "0", 0, "", null, null, "NORMAL", "", 4.0, "WEEK 2", 14, "TREATMENT", "2013-10-08T11:00", 16], [310, "CDISCPILOT01", "LB", "01-701-1153", 107, "UROBIL", "Urobilinogen", "URINALYSIS", "0", "", "", "", "0", 0, "", null, null, "NORMAL", "", 5.1, "UNSCHEDULED 5.1", null, "TREATMENT", "2013-10-19T12:22", 27], [311, "CDISCPILOT01", "LB", "01-701-1153", 201, "UROBIL", "Urobilinogen", "URINALYSIS", "0", "", "", "", "0", 0, "", null, null, "NORMAL", "", 9.0, "WEEK 12", 84, "TREATMENT", "2013-12-16T15:22", 85], [312, "CDISCPILOT01", "LB", "01-701-1153", 207, "UROBIL", "Urobilinogen", "URINALYSIS", "0", "", "", "", "0", 0, "", null, null, "NORMAL", "", 9.2, "UNSCHEDULED 9.2", null, "TREATMENT", "2013-12-18T06:30", 87], [313, "CDISCPILOT01", "LB", "01-701-1153", 212, "UROBIL", "Urobilinogen", "URINALYSIS", "0", "", "", "", "0", 0, "", null, null, "NORMAL", "", 9.299999999999999, "UNSCHEDULED 9.3", null, "TREATMENT", "2014-01-08T11:05", 108], [314, "CDISCPILOT01", "LB", "01-701-1153", 306, "UROBIL", "Urobilinogen", "URINALYSIS", "0", "", "", "", "0", 0, "", null, null, "NORMAL", "", 12.0, "WEEK 24", 168, "TREATMENT", "2014-03-11T11:58", 170], [315, "CDISCPILOT01", "LB", "01-701-1153", 36, "VITB12", "Vitamin B12", "OTHER", "345", "ng/L", "200", "900", "254.541", 254, "pmol/L", 148, 664, "NORMAL", "Y", 1.0, "SCREENING 1", -7, "SCREENING", "2013-09-06T14:50", -17], [316, "CDISCPILOT01", "LB", "01-701-1180", 12, "COLOR", "Color", "URINALYSIS", "N", "", "", "", "N", null, "", null, null, "NORMAL", "Y", 1.0, "SCREENING 1", -7, "SCREENING", "2013-01-28T11:00", -15], [317, "CDISCPILOT01", "LB", "01-701-1180", 49, "COLOR", "Color", "URINALYSIS", "N", "", "", "", "N", null, "", null, null, "NORMAL", "", 4.0, "WEEK 2", 14, "TREATMENT", "2013-02-25T12:10", 14], [318, "CDISCPILOT01", "LB", "01-701-1180", 114, "COLOR", "Color", "URINALYSIS", "N", "", "", "", "N", null, "", null, null, "NORMAL", "", 7.0, "WEEK 6", 42, "TREATMENT", "2013-03-23T12:45", 40], [319, "CDISCPILOT01", "LB", "01-701-1180", 20, "KETONES", "Ketones", "URINALYSIS", "0", "", "", "", "0", 0, "", null, null, "NORMAL", "Y", 1.0, "SCREENING 1", -7, "SCREENING", "2013-01-28T11:00", -15], [320, "CDISCPILOT01", "LB", "01-701-1180", 57, "KETONES", "Ketones", "URINALYSIS", "0", "", "", "", "0", 0, "", null, null, "NORMAL", "", 4.0, "WEEK 2", 14, "TREATMENT", "2013-02-25T12:10", 14], [321, "CDISCPILOT01", "LB", "01-701-1180", 122, "KETONES", "Ketones", "URINALYSIS", "0", "", "", "", "0", 0, "", null, null, "NORMAL", "", 7.0, "WEEK 6", 42, "TREATMENT", "2013-03-23T12:45", 40], [322, "CDISCPILOT01", "LB", "01-701-1180", 27, "PH", "pH", "URINALYSIS", "5.0", "", "5", "8", "5", 5, "", 5, 8, "NORMAL", "Y", 1.0, "SCREENING 1", -7, "SCREENING", "2013-01-28T11:00", -15], [323, "CDISCPILOT01", "LB", "01-701-1180", 64, "PH", "pH", "URINALYSIS", "5.0", "", "5", "8", "5", 5, "", 5, 8, "NORMAL", "", 4.0, "WEEK 2", 14, "TREATMENT", "2013-02-25T12:10", 14], [324, "CDISCPILOT01", "LB", "01-701-1180", 129, "PH", "pH", "URINALYSIS", "6.0", "", "5", "8", "6", 6, "", 5, 8, "NORMAL", "", 7.0, "WEEK 6", 42, "TREATMENT", "2013-03-23T12:45", 40], [325, "CDISCPILOT01", "LB", "01-701-1180", 32, "SPGRAV", "Specific Gravity", "URINALYSIS", "1.019", "", "1.01", "1.034", "1.019", 1, "", 1, 1, "NORMAL", "Y", 1.0, "SCREENING 1", -7, "SCREENING", "2013-01-28T11:00", -15], [326, "CDISCPILOT01", "LB", "01-701-1180", 69, "SPGRAV", "Specific Gravity", "URINALYSIS", "1.014", "", "1.01", "1.034", "1.014", 1, "", 1, 1, "NORMAL", "", 4.0, "WEEK 2", 14, "TREATMENT", "2013-02-25T12:10", 14], [327, "CDISCPILOT01", "LB", "01-701-1180", 134, "SPGRAV", "Specific Gravity", "URINALYSIS", "1.020", "", "1.01", "1.034", "1.02", 1, "", 1, 1, "NORMAL", "", 7.0, "WEEK 6", 42, "TREATMENT", "2013-03-23T12:45", 40], [328, "CDISCPILOT01", "LB", "01-701-1180", 33, "TSH", "Thyrotropin", "OTHER", "4.27", "mIU/L", "0.32", "5", "4.27", 4, "mU/L", 0, 5, "NORMAL", "Y", 1.0, "SCREENING 1", -7, "SCREENING", "2013-01-28T11:00", -15], [329, "CDISCPILOT01", "LB", "01-701-1180", 35, "UROBIL", "Urobilinogen", "URINALYSIS", "0", "", "", "", "0", 0, "", null, null, "NORMAL", "Y", 1.0, "SCREENING 1", -7, "SCREENING", "2013-01-28T11:00", -15], [330, "CDISCPILOT01", "LB", "01-701-1180", 71, "UROBIL", "Urobilinogen", "URINALYSIS", "0", "", "", "", "0", 0, "", null, null, "NORMAL", "", 4.0, "WEEK 2", 14, "TREATMENT", "2013-02-25T12:10", 14], [331, "CDISCPILOT01", "LB", "01-701-1180", 136, "UROBIL", "Urobilinogen", "URINALYSIS", "0", "", "", "", "0", 0, "", null, null, "NORMAL", "", 7.0, "WEEK 6", 42, "TREATMENT", "2013-03-23T12:45", 40], [332, "CDISCPILOT01", "LB", "01-701-1180", 36, "VITB12", "Vitamin B12", "OTHER", "602", "ng/L", "200", "900", "444.1556", 444, "pmol/L", 148, 664, "NORMAL", "Y", 1.0, "SCREENING 1", -7, "SCREENING", "2013-01-28T11:00", -15], [333, "CDISCPILOT01", "LB", "01-701-1181", 12, "COLOR", "Color", "URINALYSIS", "N", "", "", "", "N", null, "", null, null, "NORMAL", "Y", 1.0, "SCREENING 1", -7, "SCREENING", "2013-11-26T13:36", -9], [334, "CDISCPILOT01", "LB", "01-701-1181", 49, "COLOR", "Color", "URINALYSIS", "N", "", "", "", "N", null, "", null, null, "NORMAL", "", 4.0, "WEEK 2", 14, "TREATMENT", "2013-12-12T12:09", 8], [335, "CDISCPILOT01", "LB", "01-701-1181", 20, "KETONES", "Ketones", "URINALYSIS", "0", "", "", "", "0", 0, "", null, null, "NORMAL", "Y", 1.0, "SCREENING 1", -7, "SCREENING", "2013-11-26T13:36", -9], [336, "CDISCPILOT01", "LB", "01-701-1181", 57, "KETONES", "Ketones", "URINALYSIS", "0", "", "", "", "0", 0, "", null, null, "NORMAL", "", 4.0, "WEEK 2", 14, "TREATMENT", "2013-12-12T12:09", 8], [337, "CDISCPILOT01", "LB", "01-701-1181", 27, "PH", "pH", "URINALYSIS", "5.0", "", "5", "8", "5", 5, "", 5, 8, "NORMAL", "Y", 1.0, "SCREENING 1", -7, "SCREENING", "2013-11-26T13:36", -9], [338, "CDISCPILOT01", "LB", "01-701-1181", 64, "PH", "pH", "URINALYSIS", "5.0", "", "5", "8", "5", 5, "", 5, 8, "NORMAL", "", 4.0, "WEEK 2", 14, "TREATMENT", "2013-12-12T12:09", 8], [339, "CDISCPILOT01", "LB", "01-701-1181", 32, "SPGRAV", "Specific Gravity", "URINALYSIS", "1.016", "", "1.006", "1.03", "1.016", 1, "", 1, 1, "NORMAL", "Y", 1.0, "SCREENING 1", -7, "SCREENING", "2013-11-26T13:36", -9], [340, "CDISCPILOT01", "LB", "01-701-1181", 69, "SPGRAV", "Specific Gravity", "URINALYSIS", "1.011", "", "1.006", "1.03", "1.011", 1, "", 1, 1, "NORMAL", "", 4.0, "WEEK 2", 14, "TREATMENT", "2013-12-12T12:09", 8], [341, "CDISCPILOT01", "LB", "01-701-1181", 33, "TSH", "Thyrotropin", "OTHER", "1.51", "mIU/L", "0.32", "5", "1.51", 1, "mU/L", 0, 5, "NORMAL", "Y", 1.0, "SCREENING 1", -7, "SCREENING", "2013-11-26T13:36", -9], [342, "CDISCPILOT01", "LB", "01-701-1181", 35, "UROBIL", "Urobilinogen", "URINALYSIS", "0", "", "", "", "0", 0, "", null, null, "NORMAL", "Y", 1.0, "SCREENING 1", -7, "SCREENING", "2013-11-26T13:36", -9], [343, "CDISCPILOT01", "LB", "01-701-1181", 71, "UROBIL", "Urobilinogen", "URINALYSIS", "0", "", "", "", "0", 0, "", null, null, "NORMAL", "", 4.0, "WEEK 2", 14, "TREATMENT", "2013-12-12T12:09", 8], [344, "CDISCPILOT01", "LB", "01-701-1181", 36, "VITB12", "Vitamin B12", "OTHER", "421", "ng/L", "200", "900", "310.6138", 310, "pmol/L", 148, 664, "NORMAL", "Y", 1.0, "SCREENING 1", -7, "SCREENING", "2013-11-26T13:36", -9], [345, "CDISCPILOT01", "LB", "01-701-1188", 12, "COLOR", "Color", "URINALYSIS", "N", "", "", "", "N", null, "", null, null, "NORMAL", "Y", 1.0, "SCREENING 1", -7, "SCREENING", "2013-02-03T12:37", -12], [346, "CDISCPILOT01", "LB", "01-701-1188", 49, "COLOR", "Color", "URINALYSIS", "N", "", "", "", "N", null, "", null, null, "NORMAL", "", 4.0, "WEEK 2", 14, "TREATMENT", "2013-03-02T08:31", 16], [347, "CDISCPILOT01", "LB", "01-701-1188", 114, "COLOR", "Color", "URINALYSIS", "N", "", "", "", "N", null, "", null, null, "NORMAL", "", 7.0, "WEEK 6", 42, "TREATMENT", "2013-03-25T15:08", 39], [348, "CDISCPILOT01", "LB", "01-701-1188", 20, "KETONES", "Ketones", "URINALYSIS", "0", "", "", "", "0", 0, "", null, null, "NORMAL", "Y", 1.0, "SCREENING 1", -7, "SCREENING", "2013-02-03T12:37", -12], [349, "CDISCPILOT01", "LB", "01-701-1188", 57, "KETONES", "Ketones", "URINALYSIS", "0", "", "", "", "0", 0, "", null, null, "NORMAL", "", 4.0, "WEEK 2", 14, "TREATMENT", "2013-03-02T08:31", 16], [350, "CDISCPILOT01", "LB", "01-701-1188", 122, "KETONES", "Ketones", "URINALYSIS", "0", "", "", "", "0", 0, "", null, null, "NORMAL", "", 7.0, "WEEK 6", 42, "TREATMENT", "2013-03-25T15:08", 39], [351, "CDISCPILOT01", "LB", "01-701-1188", 27, "PH", "pH", "URINALYSIS", "6.0", "", "5", "8", "6", 6, "", 5, 8, "NORMAL", "Y", 1.0, "SCREENING 1", -7, "SCREENING", "2013-02-03T12:37", -12], [352, "CDISCPILOT01", "LB", "01-701-1188", 64, "PH", "pH", "URINALYSIS", "5.0", "", "5", "8", "5", 5, "", 5, 8, "NORMAL", "", 4.0, "WEEK 2", 14, "TREATMENT", "2013-03-02T08:31", 16], [353, "CDISCPILOT01", "LB", "01-701-1188", 129, "PH", "pH", "URINALYSIS", "5.0", "", "5", "8", "5", 5, "", 5, 8, "NORMAL", "", 7.0, "WEEK 6", 42, "TREATMENT", "2013-03-25T15:08", 39], [354, "CDISCPILOT01", "LB", "01-701-1188", 32, "SPGRAV", "Specific Gravity", "URINALYSIS", "1.019", "", "1.006", "1.03", "1.019", 1, "", 1, 1, "NORMAL", "Y", 1.0, "SCREENING 1", -7, "SCREENING", "2013-02-03T12:37", -12], [355, "CDISCPILOT01", "LB", "01-701-1188", 69, "SPGRAV", "Specific Gravity", "URINALYSIS", "1.022", "", "1.006", "1.03", "1.022", 1, "", 1, 1, "NORMAL", "", 4.0, "WEEK 2", 14, "TREATMENT", "2013-03-02T08:31", 16], [356, "CDISCPILOT01", "LB", "01-701-1188", 134, "SPGRAV", "Specific Gravity", "URINALYSIS", "1.022", "", "1.006", "1.03", "1.022", 1, "", 1, 1, "NORMAL", "", 7.0, "WEEK 6", 42, "TREATMENT", "2013-03-25T15:08", 39], [357, "CDISCPILOT01", "LB", "01-701-1188", 33, "TSH", "Thyrotropin", "OTHER", "1.48", "mIU/L", "0.32", "5", "1.48", 1, "mU/L", 0, 5, "NORMAL", "Y", 1.0, "SCREENING 1", -7, "SCREENING", "2013-02-03T12:37", -12], [358, "CDISCPILOT01", "LB", "01-701-1188", 35, "UROBIL", "Urobilinogen", "URINALYSIS", "0", "", "", "", "0", 0, "", null, null, "NORMAL", "Y", 1.0, "SCREENING 1", -7, "SCREENING", "2013-02-03T12:37", -12], [359, "CDISCPILOT01", "LB", "01-701-1188", 71, "UROBIL", "Urobilinogen", "URINALYSIS", "0", "", "", "", "0", 0, "", null, null, "NORMAL", "", 4.0, "WEEK 2", 14, "TREATMENT", "2013-03-02T08:31", 16], [360, "CDISCPILOT01", "LB", "01-701-1188", 136, "UROBIL", "Urobilinogen", "URINALYSIS", "0", "", "", "", "0", 0, "", null, null, "NORMAL", "", 7.0, "WEEK 6", 42, "TREATMENT", "2013-03-25T15:08", 39], [361, "CDISCPILOT01", "LB", "01-701-1188", 36, "VITB12", "Vitamin B12", "OTHER", "269", "ng/L", "200", "900", "198.4682", 198, "pmol/L", 148, 664, "NORMAL", "Y", 1.0, "SCREENING 1", -7, "SCREENING", "2013-02-03T12:37", -12], [362, "CDISCPILOT01", "LB", "01-701-1192", 12, "COLOR", "Color", "URINALYSIS", "N", "", "", "", "N", null, "", null, null, "NORMAL", "Y", 1.0, "SCREENING 1", -7, "SCREENING", "2012-07-08T15:50", -14], [363, "CDISCPILOT01", "LB", "01-701-1192", 49, "COLOR", "Color", "URINALYSIS", "N", "", "", "", "N", null, "", null, null, "NORMAL", "", 4.0, "WEEK 2", 14, "TREATMENT", "2012-08-07T10:31", 17], [364, "CDISCPILOT01", "LB", "01-701-1192", 103, "COLOR", "Color", "URINALYSIS", "N", "", "", "", "N", null, "", null, null, "NORMAL", "", 5.1, "UNSCHEDULED 5.1", null, "TREATMENT", "2012-08-21T11:00", 31], [365, "CDISCPILOT01", "LB", "01-701-1192", 179, "COLOR", "Color", "URINALYSIS", "N", "", "", "", "N", null, "", null, null, "NORMAL", "", 9.0, "WEEK 12", 84, "TREATMENT", "2012-10-14T13:12", 85], [366, "CDISCPILOT01", "LB", "01-701-1192", 274, "COLOR", "Color", "URINALYSIS", "N", "", "", "", "N", null, "", null, null, "NORMAL", "", 12.0, "WEEK 24", 168, "TREATMENT", "2013-01-11T15:37", 174], [367, "CDISCPILOT01", "LB", "01-701-1192", 20, "KETONES", "Ketones", "URINALYSIS", "0", "", "", "", "0", 0, "", null, null, "NORMAL", "Y", 1.0, "SCREENING 1", -7, "SCREENING", "2012-07-08T15:50", -14], [368, "CDISCPILOT01", "LB", "01-701-1192", 57, "KETONES", "Ketones", "URINALYSIS", "0", "", "", "", "0", 0, "", null, null, "NORMAL", "", 4.0, "WEEK 2", 14, "TREATMENT", "2012-08-07T10:31", 17], [369, "CDISCPILOT01", "LB", "01-701-1192", 104, "KETONES", "Ketones", "URINALYSIS", "0", "", "", "", "0", 0, "", null, null, "NORMAL", "", 5.1, "UNSCHEDULED 5.1", null, "TREATMENT", "2012-08-21T11:00", 31], [370, "CDISCPILOT01", "LB", "01-701-1192", 187, "KETONES", "Ketones", "URINALYSIS", "0", "", "", "", "0", 0, "", null, null, "NORMAL", "", 9.0, "WEEK 12", 84, "TREATMENT", "2012-10-14T13:12", 85], [371, "CDISCPILOT01", "LB", "01-701-1192", 282, "KETONES", "Ketones", "URINALYSIS", "0", "", "", "", "0", 0, "", null, null, "NORMAL", "", 12.0, "WEEK 24", 168, "TREATMENT", "2013-01-11T15:37", 174], [372, "CDISCPILOT01", "LB", "01-701-1192", 27, "PH", "pH", "URINALYSIS", "5.0", "", "5", "8", "5", 5, "", 5, 8, "NORMAL", "Y", 1.0, "SCREENING 1", -7, "SCREENING", "2012-07-08T15:50", -14], [373, "CDISCPILOT01", "LB", "01-701-1192", 64, "PH", "pH", "URINALYSIS", "5.0", "", "5", "8", "5", 5, "", 5, 8, "NORMAL", "", 4.0, "WEEK 2", 14, "TREATMENT", "2012-08-07T10:31", 17], [374, "CDISCPILOT01", "LB", "01-701-1192", 105, "PH", "pH", "URINALYSIS", "5.0", "", "5", "8", "5", 5, "", 5, 8, "NORMAL", "", 5.1, "UNSCHEDULED 5.1", null, "TREATMENT", "2012-08-21T11:00", 31], [375, "CDISCPILOT01", "LB", "01-701-1192", 194, "PH", "pH", "URINALYSIS", "5.0", "", "5", "8", "5", 5, "", 5, 8, "NORMAL", "", 9.0, "WEEK 12", 84, "TREATMENT", "2012-10-14T13:12", 85], [376, "CDISCPILOT01", "LB", "01-701-1192", 289, "PH", "pH", "URINALYSIS", "6.0", "", "5", "8", "6", 6, "", 5, 8, "NORMAL", "", 12.0, "WEEK 24", 168, "TREATMENT", "2013-01-11T15:37", 174], [377, "CDISCPILOT01", "LB", "01-701-1192", 32, "SPGRAV", "Specific Gravity", "URINALYSIS", "1.022", "", "1.006", "1.03", "1.022", 1, "", 1, 1, "NORMAL", "Y", 1.0, "SCREENING 1", -7, "SCREENING", "2012-07-08T15:50", -14], [378, "CDISCPILOT01", "LB", "01-701-1192", 69, "SPGRAV", "Specific Gravity", "URINALYSIS", "1.026", "", "1.006", "1.03", "1.026", 1, "", 1, 1, "NORMAL", "", 4.0, "WEEK 2", 14, "TREATMENT", "2012-08-07T10:31", 17], [379, "CDISCPILOT01", "LB", "01-701-1192", 106, "SPGRAV", "Specific Gravity", "URINALYSIS", "1.025", "", "1.006", "1.03", "1.025", 1, "", 1, 1, "NORMAL", "", 5.1, "UNSCHEDULED 5.1", null, "TREATMENT", "2012-08-21T11:00", 31], [380, "CDISCPILOT01", "LB", "01-701-1192", 199, "SPGRAV", "Specific Gravity", "URINALYSIS", "1.025", "", "1.006", "1.03", "1.025", 1, "", 1, 1, "NORMAL", "", 9.0, "WEEK 12", 84, "TREATMENT", "2012-10-14T13:12", 85], [381, "CDISCPILOT01", "LB", "01-701-1192", 294, "SPGRAV", "Specific Gravity", "URINALYSIS", "1.019", "", "1.006", "1.03", "1.019", 1, "", 1, 1, "NORMAL", "", 12.0, "WEEK 24", 168, "TREATMENT", "2013-01-11T15:37", 174], [382, "CDISCPILOT01", "LB", "01-701-1192", 33, "TSH", "Thyrotropin", "OTHER", "0.76", "mIU/L", "0.32", "5", "0.76", 0, "mU/L", 0, 5, "NORMAL", "Y", 1.0, "SCREENING 1", -7, "SCREENING", "2012-07-08T15:50", -14], [383, "CDISCPILOT01", "LB", "01-701-1192", 35, "UROBIL", "Urobilinogen", "URINALYSIS", "0", "", "", "", "0", 0, "", null, null, "NORMAL", "Y", 1.0, "SCREENING 1", -7, "SCREENING", "2012-07-08T15:50", -14], [384, "CDISCPILOT01", "LB", "01-701-1192", 71, "UROBIL", "Urobilinogen", "URINALYSIS", "0", "", "", "", "0", 0, "", null, null, "NORMAL", "", 4.0, "WEEK 2", 14, "TREATMENT", "2012-08-07T10:31", 17], [385, "CDISCPILOT01", "LB", "01-701-1192", 107, "UROBIL", "Urobilinogen", "URINALYSIS", "0", "", "", "", "0", 0, "", null, null, "NORMAL", "", 5.1, "UNSCHEDULED 5.1", null, "TREATMENT", "2012-08-21T11:00", 31], [386, "CDISCPILOT01", "LB", "01-701-1192", 201, "UROBIL", "Urobilinogen", "URINALYSIS", "0", "", "", "", "0", 0, "", null, null, "NORMAL", "", 9.0, "WEEK 12", 84, "TREATMENT", "2012-10-14T13:12", 85], [387, "CDISCPILOT01", "LB", "01-701-1192", 296, "UROBIL", "Urobilinogen", "URINALYSIS", "0", "", "", "", "0", 0, "", null, null, "NORMAL", "", 12.0, "WEEK 24", 168, "TREATMENT", "2013-01-11T15:37", 174], [388, "CDISCPILOT01", "LB", "01-701-1192", 36, "VITB12", "Vitamin B12", "OTHER", "325", "ng/L", "200", "900", "239.785", 239, "pmol/L", 148, 664, "NORMAL", "Y", 1.0, "SCREENING 1", -7, "SCREENING", "2012-07-08T15:50", -14], [389, "CDISCPILOT01", "LB", "01-701-1203", 12, "COLOR", "Color", "URINALYSIS", "N", "", "", "", "N", null, "", null, null, "NORMAL", "Y", 1.0, "SCREENING 1", -7, "SCREENING", "2013-01-25T13:50", -8], [390, "CDISCPILOT01", "LB", "01-701-1203", 49, "COLOR", "Color", "URINALYSIS", "N", "", "", "", "N", null, "", null, null, "NORMAL", "", 4.0, "WEEK 2", 14, "TREATMENT", "2013-02-23T11:56", 22], [391, "CDISCPILOT01", "LB", "01-701-1203", 174, "COLOR", "Color", "URINALYSIS", "N", "", "", "", "N", null, "", null, null, "NORMAL", "", 9.0, "WEEK 12", 84, "TREATMENT", "2013-05-09T13:25", 97], [392, "CDISCPILOT01", "LB", "01-701-1203", 269, "COLOR", "Color", "URINALYSIS", "N", "", "", "", "N", null, "", null, null, "NORMAL", "", 12.0, "WEEK 24", 168, "TREATMENT", "2013-07-22T12:49", 171], [393, "CDISCPILOT01", "LB", "01-701-1203", 20, "KETONES", "Ketones", "URINALYSIS", "0", "", "", "", "0", 0, "", null, null, "NORMAL", "Y", 1.0, "SCREENING 1", -7, "SCREENING", "2013-01-25T13:50", -8], [394, "CDISCPILOT01", "LB", "01-701-1203", 57, "KETONES", "Ketones", "URINALYSIS", "0", "", "", "", "0", 0, "", null, null, "NORMAL", "", 4.0, "WEEK 2", 14, "TREATMENT", "2013-02-23T11:56", 22], [395, "CDISCPILOT01", "LB", "01-701-1203", 182, "KETONES", "Ketones", "URINALYSIS", "1", "", "", "", "1", 1, "", null, null, "ABNORMAL", "", 9.0, "WEEK 12", 84, "TREATMENT", "2013-05-09T13:25", 97], [396, "CDISCPILOT01", "LB", "01-701-1203", 277, "KETONES", "Ketones", "URINALYSIS", "0", "", "", "", "0", 0, "", null, null, "NORMAL", "", 12.0, "WEEK 24", 168, "TREATMENT", "2013-07-22T12:49", 171], [397, "CDISCPILOT01", "LB", "01-701-1203", 27, "PH", "pH", "URINALYSIS", "5.0", "", "5", "8", "5", 5, "", 5, 8, "NORMAL", "Y", 1.0, "SCREENING 1", -7, "SCREENING", "2013-01-25T13:50", -8], [398, "CDISCPILOT01", "LB", "01-701-1203", 64, "PH", "pH", "URINALYSIS", "5.0", "", "5", "8", "5", 5, "", 5, 8, "NORMAL", "", 4.0, "WEEK 2", 14, "TREATMENT", "2013-02-23T11:56", 22], [399, "CDISCPILOT01", "LB", "01-701-1203", 189, "PH", "pH", "URINALYSIS", "6.0", "", "5", "8", "6", 6, "", 5, 8, "NORMAL", "", 9.0, "WEEK 12", 84, "TREATMENT", "2013-05-09T13:25", 97], [400, "CDISCPILOT01", "LB", "01-701-1203", 284, "PH", "pH", "URINALYSIS", "5.0", "", "5", "8", "5", 5, "", 5, 8, "NORMAL", "", 12.0, "WEEK 24", 168, "TREATMENT", "2013-07-22T12:49", 171], [401, "CDISCPILOT01", "LB", "01-701-1203", 32, "SPGRAV", "Specific Gravity", "URINALYSIS", "1.017", "", "1.006", "1.03", "1.017", 1, "", 1, 1, "NORMAL", "Y", 1.0, "SCREENING 1", -7, "SCREENING", "2013-01-25T13:50", -8], [402, "CDISCPILOT01", "LB", "01-701-1203", 69, "SPGRAV", "Specific Gravity", "URINALYSIS", "1.010", "", "1.006", "1.03", "1.01", 1, "", 1, 1, "NORMAL", "", 4.0, "WEEK 2", 14, "TREATMENT", "2013-02-23T11:56", 22], [403, "CDISCPILOT01", "LB", "01-701-1203", 194, "SPGRAV", "Specific Gravity", "URINALYSIS", "1.025", "", "1.006", "1.03", "1.025", 1, "", 1, 1, "NORMAL", "", 9.0, "WEEK 12", 84, "TREATMENT", "2013-05-09T13:25", 97], [404, "CDISCPILOT01", "LB", "01-701-1203", 289, "SPGRAV", "Specific Gravity", "URINALYSIS", "1.018", "", "1.006", "1.03", "1.018", 1, "", 1, 1, "NORMAL", "", 12.0, "WEEK 24", 168, "TREATMENT", "2013-07-22T12:49", 171], [405, "CDISCPILOT01", "LB", "01-701-1203", 33, "TSH", "Thyrotropin", "OTHER", "4.80", "mIU/L", "0.32", "5", "4.8", 4, "mU/L", 0, 5, "NORMAL", "Y", 1.0, "SCREENING 1", -7, "SCREENING", "2013-01-25T13:50", -8], [406, "CDISCPILOT01", "LB", "01-701-1203", 35, "UROBIL", "Urobilinogen", "URINALYSIS", "0", "", "", "", "0", 0, "", null, null, "NORMAL", "Y", 1.0, "SCREENING 1", -7, "SCREENING", "2013-01-25T13:50", -8], [407, "CDISCPILOT01", "LB", "01-701-1203", 71, "UROBIL", "Urobilinogen", "URINALYSIS", "0", "", "", "", "0", 0, "", null, null, "NORMAL", "", 4.0, "WEEK 2", 14, "TREATMENT", "2013-02-23T11:56", 22], [408, "CDISCPILOT01", "LB", "01-701-1203", 196, "UROBIL", "Urobilinogen", "URINALYSIS", "0", "", "", "", "0", 0, "", null, null, "NORMAL", "", 9.0, "WEEK 12", 84, "TREATMENT", "2013-05-09T13:25", 97], [409, "CDISCPILOT01", "LB", "01-701-1203", 291, "UROBIL", "Urobilinogen", "URINALYSIS", "0", "", "", "", "0", 0, "", null, null, "NORMAL", "", 12.0, "WEEK 24", 168, "TREATMENT", "2013-07-22T12:49", 171], [410, "CDISCPILOT01", "LB", "01-701-1203", 36, "VITB12", "Vitamin B12", "OTHER", "491", "ng/L", "200", "900", "362.2598", 362, "pmol/L", 148, 664, "NORMAL", "Y", 1.0, "SCREENING 1", -7, "SCREENING", "2013-01-25T13:50", -8], [411, "CDISCPILOT01", "LB", "01-701-1211", 12, "COLOR", "Color", "URINALYSIS", "N", "", "", "", "N", null, "", null, null, "NORMAL", "Y", 1.0, "SCREENING 1", -7, "SCREENING", "2012-10-30T14:26", -16], [412, "CDISCPILOT01", "LB", "01-701-1211", 49, "COLOR", "Color", "URINALYSIS", "N", "", "", "", "N", null, "", null, null, "NORMAL", "", 4.0, "WEEK 2", 14, "TREATMENT", "2012-11-28T10:00", 14], [413, "CDISCPILOT01", "LB", "01-701-1211", 20, "KETONES", "Ketones", "URINALYSIS", "1", "", "", "", "1", 1, "", null, null, "ABNORMAL", "Y", 1.0, "SCREENING 1", -7, "SCREENING", "2012-10-30T14:26", -16], [414, "CDISCPILOT01", "LB", "01-701-1211", 57, "KETONES", "Ketones", "URINALYSIS", "0", "", "", "", "0", 0, "", null, null, "NORMAL", "", 4.0, "WEEK 2", 14, "TREATMENT", "2012-11-28T10:00", 14], [415, "CDISCPILOT01", "LB", "01-701-1211", 27, "PH", "pH", "URINALYSIS", "5.0", "", "5", "8", "5", 5, "", 5, 8, "NORMAL", "Y", 1.0, "SCREENING 1", -7, "SCREENING", "2012-10-30T14:26", -16], [416, "CDISCPILOT01", "LB", "01-701-1211", 64, "PH", "pH", "URINALYSIS", "5.0", "", "5", "8", "5", 5, "", 5, 8, "NORMAL", "", 4.0, "WEEK 2", 14, "TREATMENT", "2012-11-28T10:00", 14], [417, "CDISCPILOT01", "LB", "01-701-1211", 32, "SPGRAV", "Specific Gravity", "URINALYSIS", "1.021", "", "1.006", "1.03", "1.021", 1, "", 1, 1, "NORMAL", "Y", 1.0, "SCREENING 1", -7, "SCREENING", "2012-10-30T14:26", -16], [418, "CDISCPILOT01", "LB", "01-701-1211", 69, "SPGRAV", "Specific Gravity", "URINALYSIS", "1.016", "", "1.006", "1.03", "1.016", 1, "", 1, 1, "NORMAL", "", 4.0, "WEEK 2", 14, "TREATMENT", "2012-11-28T10:00", 14], [419, "CDISCPILOT01", "LB", "01-701-1211", 33, "TSH", "Thyrotropin", "OTHER", "1.75", "mIU/L", "0.32", "5", "1.75", 1, "mU/L", 0, 5, "NORMAL", "Y", 1.0, "SCREENING 1", -7, "SCREENING", "2012-10-30T14:26", -16], [420, "CDISCPILOT01", "LB", "01-701-1211", 35, "UROBIL", "Urobilinogen", "URINALYSIS", "0", "", "", "", "0", 0, "", null, null, "NORMAL", "Y", 1.0, "SCREENING 1", -7, "SCREENING", "2012-10-30T14:26", -16], [421, "CDISCPILOT01", "LB", "01-701-1211", 71, "UROBIL", "Urobilinogen", "URINALYSIS", "0", "", "", "", "0", 0, "", null, null, "NORMAL", "", 4.0, "WEEK 2", 14, "TREATMENT", "2012-11-28T10:00", 14], [422, "CDISCPILOT01", "LB", "01-701-1211", 36, "VITB12", "Vitamin B12", "OTHER", "427", "ng/L", "200", "900", "315.0406", 315, "pmol/L", 148, 664, "NORMAL", "Y", 1.0, "SCREENING 1", -7, "SCREENING", "2012-10-30T14:26", -16], [423, "CDISCPILOT01", "LB", "01-701-1234", 13, "COLOR", "Color", "URINALYSIS", "N", "", "", "", "N", null, "", null, null, "NORMAL", "Y", 1.0, "SCREENING 1", -7, "SCREENING", "2013-03-20T16:13", -10], [424, "CDISCPILOT01", "LB", "01-701-1234", 50, "COLOR", "Color", "URINALYSIS", "N", "", "", "", "N", null, "", null, null, "NORMAL", "", 4.0, "WEEK 2", 14, "TREATMENT", "2013-04-21T08:49", 23], [425, "CDISCPILOT01", "LB", "01-701-1234", 175, "COLOR", "Color", "URINALYSIS", "N", "", "", "", "N", null, "", null, null, "NORMAL", "", 9.0, "WEEK 12", 84, "TREATMENT", "2013-07-07T11:13", 100], [426, "CDISCPILOT01", "LB", "01-701-1234", 270, "COLOR", "Color", "URINALYSIS", "N", "", "", "", "N", null, "", null, null, "NORMAL", "", 12.0, "WEEK 24", 168, "TREATMENT", "2013-09-10T13:26", 165], [427, "CDISCPILOT01", "LB", "01-701-1234", 21, "KETONES", "Ketones", "URINALYSIS", "0", "", "", "", "0", 0, "", null, null, "NORMAL", "Y", 1.0, "SCREENING 1", -7, "SCREENING", "2013-03-20T16:13", -10], [428, "CDISCPILOT01", "LB", "01-701-1234", 58, "KETONES", "Ketones", "URINALYSIS", "0", "", "", "", "0", 0, "", null, null, "NORMAL", "", 4.0, "WEEK 2", 14, "TREATMENT", "2013-04-21T08:49", 23], [429, "CDISCPILOT01", "LB", "01-701-1234", 183, "KETONES", "Ketones", "URINALYSIS", "0", "", "", "", "0", 0, "", null, null, "NORMAL", "", 9.0, "WEEK 12", 84, "TREATMENT", "2013-07-07T11:13", 100], [430, "CDISCPILOT01", "LB", "01-701-1234", 278, "KETONES", "Ketones", "URINALYSIS", "1", "", "", "", "1", 1, "", null, null, "ABNORMAL", "", 12.0, "WEEK 24", 168, "TREATMENT", "2013-09-10T13:26", 165], [431, "CDISCPILOT01", "LB", "01-701-1234", 28, "PH", "pH", "URINALYSIS", "5.0", "", "5", "8", "5", 5, "", 5, 8, "NORMAL", "Y", 1.0, "SCREENING 1", -7, "SCREENING", "2013-03-20T16:13", -10], [432, "CDISCPILOT01", "LB", "01-701-1234", 65, "PH", "pH", "URINALYSIS", "5.0", "", "5", "8", "5", 5, "", 5, 8, "NORMAL", "", 4.0, "WEEK 2", 14, "TREATMENT", "2013-04-21T08:49", 23], [433, "CDISCPILOT01", "LB", "01-701-1234", 190, "PH", "pH", "URINALYSIS", "7.0", "", "5", "8", "7", 7, "", 5, 8, "NORMAL", "", 9.0, "WEEK 12", 84, "TREATMENT", "2013-07-07T11:13", 100], [434, "CDISCPILOT01", "LB", "01-701-1234", 285, "PH", "pH", "URINALYSIS", "6.0", "", "5", "8", "6", 6, "", 5, 8, "NORMAL", "", 12.0, "WEEK 24", 168, "TREATMENT", "2013-09-10T13:26", 165], [435, "CDISCPILOT01", "LB", "01-701-1234", 33, "SPGRAV", "Specific Gravity", "URINALYSIS", "1.028", "", "1.006", "1.03", "1.028", 1, "", 1, 1, "NORMAL", "Y", 1.0, "SCREENING 1", -7, "SCREENING", "2013-03-20T16:13", -10], [436, "CDISCPILOT01", "LB", "01-701-1234", 70, "SPGRAV", "Specific Gravity", "URINALYSIS", "1.020", "", "1.006", "1.03", "1.02", 1, "", 1, 1, "NORMAL", "", 4.0, "WEEK 2", 14, "TREATMENT", "2013-04-21T08:49", 23], [437, "CDISCPILOT01", "LB", "01-701-1234", 195, "SPGRAV", "Specific Gravity", "URINALYSIS", "1.021", "", "1.006", "1.03", "1.021", 1, "", 1, 1, "NORMAL", "", 9.0, "WEEK 12", 84, "TREATMENT", "2013-07-07T11:13", 100], [438, "CDISCPILOT01", "LB", "01-701-1234", 290, "SPGRAV", "Specific Gravity", "URINALYSIS", "1.023", "", "1.006", "1.03", "1.023", 1, "", 1, 1, "NORMAL", "", 12.0, "WEEK 24", 168, "TREATMENT", "2013-09-10T13:26", 165], [439, "CDISCPILOT01", "LB", "01-701-1234", 34, "TSH", "Thyrotropin", "OTHER", "0.66", "mIU/L", "0.32", "5", "0.66", 0, "mU/L", 0, 5, "NORMAL", "Y", 1.0, "SCREENING 1", -7, "SCREENING", "2013-03-20T16:13", -10], [440, "CDISCPILOT01", "LB", "01-701-1234", 36, "UROBIL", "Urobilinogen", "URINALYSIS", "0", "", "", "", "0", 0, "", null, null, "NORMAL", "Y", 1.0, "SCREENING 1", -7, "SCREENING", "2013-03-20T16:13", -10], [441, "CDISCPILOT01", "LB", "01-701-1234", 72, "UROBIL", "Urobilinogen", "URINALYSIS", "0", "", "", "", "0", 0, "", null, null, "NORMAL", "", 4.0, "WEEK 2", 14, "TREATMENT", "2013-04-21T08:49", 23], [442, "CDISCPILOT01", "LB", "01-701-1234", 197, "UROBIL", "Urobilinogen", "URINALYSIS", "0", "", "", "", "0", 0, "", null, null, "NORMAL", "", 9.0, "WEEK 12", 84, "TREATMENT", "2013-07-07T11:13", 100], [443, "CDISCPILOT01", "LB", "01-701-1234", 292, "UROBIL", "Urobilinogen", "URINALYSIS", "0", "", "", "", "0", 0, "", null, null, "NORMAL", "", 12.0, "WEEK 24", 168, "TREATMENT", "2013-09-10T13:26", 165], [444, "CDISCPILOT01", "LB", "01-701-1234", 37, "VITB12", "Vitamin B12", "OTHER", "497", "ng/L", "200", "900", "366.6866", 366, "pmol/L", 148, 664, "NORMAL", "Y", 1.0, "SCREENING 1", -7, "SCREENING", "2013-03-20T16:13", -10], [445, "CDISCPILOT01", "LB", "01-701-1239", 12, "COLOR", "Color", "URINALYSIS", "N", "", "", "", "N", null, "", null, null, "NORMAL", "Y", 1.0, "SCREENING 1", -7, "SCREENING", "2013-12-28T12:44", -14], [446, "CDISCPILOT01", "LB", "01-701-1239", 64, "COLOR", "Color", "URINALYSIS", "N", "", "", "", "N", null, "", null, null, "NORMAL", "", 4.0, "WEEK 2", 14, "TREATMENT", "2014-01-25T10:05", 15], [447, "CDISCPILOT01", "LB", "01-701-1239", 189, "COLOR", "Color", "URINALYSIS", "N", "", "", "", "N", null, "", null, null, "NORMAL", "", 9.0, "WEEK 12", 84, "TREATMENT", "2014-04-02T08:31", 82], [448, "CDISCPILOT01", "LB", "01-701-1239", 284, "COLOR", "Color", "URINALYSIS", "N", "", "", "", "N", null, "", null, null, "NORMAL", "", 12.0, "WEEK 24", 168, "TREATMENT", "2014-06-27T10:11", 168], [449, "CDISCPILOT01", "LB", "01-701-1239", 20, "KETONES", "Ketones", "URINALYSIS", "0", "", "", "", "0", 0, "", null, null, "NORMAL", "Y", 1.0, "SCREENING 1", -7, "SCREENING", "2013-12-28T12:44", -14], [450, "CDISCPILOT01", "LB", "01-701-1239", 72, "KETONES", "Ketones", "URINALYSIS", "0", "", "", "", "0", 0, "", null, null, "NORMAL", "", 4.0, "WEEK 2", 14, "TREATMENT", "2014-01-25T10:05", 15], [451, "CDISCPILOT01", "LB", "01-701-1239", 197, "KETONES", "Ketones", "URINALYSIS", "0", "", "", "", "0", 0, "", null, null, "NORMAL", "", 9.0, "WEEK 12", 84, "TREATMENT", "2014-04-02T08:31", 82], [452, "CDISCPILOT01", "LB", "01-701-1239", 292, "KETONES", "Ketones", "URINALYSIS", "0", "", "", "", "0", 0, "", null, null, "NORMAL", "", 12.0, "WEEK 24", 168, "TREATMENT", "2014-06-27T10:11", 168], [453, "CDISCPILOT01", "LB", "01-701-1239", 27, "PH", "pH", "URINALYSIS", "5.0", "", "5", "8", "5", 5, "", 5, 8, "NORMAL", "Y", 1.0, "SCREENING 1", -7, "SCREENING", "2013-12-28T12:44", -14], [454, "CDISCPILOT01", "LB", "01-701-1239", 79, "PH", "pH", "URINALYSIS", "6.0", "", "5", "8", "6", 6, "", 5, 8, "NORMAL", "", 4.0, "WEEK 2", 14, "TREATMENT", "2014-01-25T10:05", 15], [455, "CDISCPILOT01", "LB", "01-701-1239", 204, "PH", "pH", "URINALYSIS", "5.0", "", "5", "8", "5", 5, "", 5, 8, "NORMAL", "", 9.0, "WEEK 12", 84, "TREATMENT", "2014-04-02T08:31", 82], [456, "CDISCPILOT01", "LB", "01-701-1239", 299, "PH", "pH", "URINALYSIS", "6.0", "", "5", "8", "6", 6, "", 5, 8, "NORMAL", "", 12.0, "WEEK 24", 168, "TREATMENT", "2014-06-27T10:11", 168], [457, "CDISCPILOT01", "LB", "01-701-1239", 32, "SPGRAV", "Specific Gravity", "URINALYSIS", "1.018", "", "1.01", "1.034", "1.018", 1, "", 1, 1, "NORMAL", "Y", 1.0, "SCREENING 1", -7, "SCREENING", "2013-12-28T12:44", -14], [458, "CDISCPILOT01", "LB", "01-701-1239", 84, "SPGRAV", "Specific Gravity", "URINALYSIS", "1.030", "", "1.01", "1.034", "1.03", 1, "", 1, 1, "NORMAL", "", 4.0, "WEEK 2", 14, "TREATMENT", "2014-01-25T10:05", 15], [459, "CDISCPILOT01", "LB", "01-701-1239", 209, "SPGRAV", "Specific Gravity", "URINALYSIS", "1.013", "", "1.01", "1.034", "1.013", 1, "", 1, 1, "NORMAL", "", 9.0, "WEEK 12", 84, "TREATMENT", "2014-04-02T08:31", 82], [460, "CDISCPILOT01", "LB", "01-701-1239", 304, "SPGRAV", "Specific Gravity", "URINALYSIS", "1.018", "", "1.01", "1.034", "1.018", 1, "", 1, 1, "NORMAL", "", 12.0, "WEEK 24", 168, "TREATMENT", "2014-06-27T10:11", 168], [461, "CDISCPILOT01", "LB", "01-701-1239", 33, "TSH", "Thyrotropin", "OTHER", "1.42", "mIU/L", "0.32", "5", "1.42", 1, "mU/L", 0, 5, "NORMAL", "Y", 1.0, "SCREENING 1", -7, "SCREENING", "2013-12-28T12:44", -14], [462, "CDISCPILOT01", "LB", "01-701-1239", 35, "UROBIL", "Urobilinogen", "URINALYSIS", "0", "", "", "", "0", 0, "", null, null, "NORMAL", "Y", 1.0, "SCREENING 1", -7, "SCREENING", "2013-12-28T12:44", -14], [463, "CDISCPILOT01", "LB", "01-701-1239", 86, "UROBIL", "Urobilinogen", "URINALYSIS", "0", "", "", "", "0", 0, "", null, null, "NORMAL", "", 4.0, "WEEK 2", 14, "TREATMENT", "2014-01-25T10:05", 15], [464, "CDISCPILOT01", "LB", "01-701-1239", 211, "UROBIL", "Urobilinogen", "URINALYSIS", "0", "", "", "", "0", 0, "", null, null, "NORMAL", "", 9.0, "WEEK 12", 84, "TREATMENT", "2014-04-02T08:31", 82], [465, "CDISCPILOT01", "LB", "01-701-1239", 306, "UROBIL", "Urobilinogen", "URINALYSIS", "0", "", "", "", "0", 0, "", null, null, "NORMAL", "", 12.0, "WEEK 24", 168, "TREATMENT", "2014-06-27T10:11", 168], [466, "CDISCPILOT01", "LB", "01-701-1239", 36, "VITB12", "Vitamin B12", "OTHER", "640", "ng/L", "200", "900", "472.192", 472, "pmol/L", 148, 664, "NORMAL", "Y", 1.0, "SCREENING 1", -7, "SCREENING", "2013-12-28T12:44", -14], [467, "CDISCPILOT01", "LB", "01-701-1275", 12, "COLOR", "Color", "URINALYSIS", "N", "", "", "", "N", null, "", null, null, "NORMAL", "Y", 1.0, "SCREENING 1", -7, "SCREENING", "2014-01-25T09:26", -13], [468, "CDISCPILOT01", "LB", "01-701-1275", 49, "COLOR", "Color", "URINALYSIS", "N", "", "", "", "N", null, "", null, null, "NORMAL", "", 4.0, "WEEK 2", 14, "TREATMENT", "2014-02-22T08:22", 16], [469, "CDISCPILOT01", "LB", "01-701-1275", 173, "COLOR", "Color", "URINALYSIS", "N", "", "", "", "N", null, "", null, null, "NORMAL", "", 9.0, "WEEK 12", 84, "TREATMENT", "2014-05-03T08:15", 86], [470, "CDISCPILOT01", "LB", "01-701-1275", 206, "COLOR", "Color", "URINALYSIS", "N", "", "", "", "N", null, "", null, null, "NORMAL", "", 10.0, "WEEK 16", 112, "TREATMENT", "2014-06-14T12:35", 128], [471, "CDISCPILOT01", "LB", "01-701-1275", 20, "KETONES", "Ketones", "URINALYSIS", "0", "", "", "", "0", 0, "", null, null, "NORMAL", "Y", 1.0, "SCREENING 1", -7, "SCREENING", "2014-01-25T09:26", -13], [472, "CDISCPILOT01", "LB", "01-701-1275", 57, "KETONES", "Ketones", "URINALYSIS", "0", "", "", "", "0", 0, "", null, null, "NORMAL", "", 4.0, "WEEK 2", 14, "TREATMENT", "2014-02-22T08:22", 16], [473, "CDISCPILOT01", "LB", "01-701-1275", 180, "KETONES", "Ketones", "URINALYSIS", "0", "", "", "", "0", 0, "", null, null, "NORMAL", "", 9.0, "WEEK 12", 84, "TREATMENT", "2014-05-03T08:15", 86], [474, "CDISCPILOT01", "LB", "01-701-1275", 214, "KETONES", "Ketones", "URINALYSIS", "0", "", "", "", "0", 0, "", null, null, "NORMAL", "", 10.0, "WEEK 16", 112, "TREATMENT", "2014-06-14T12:35", 128], [475, "CDISCPILOT01", "LB", "01-701-1275", 27, "PH", "pH", "URINALYSIS", "5.0", "", "5", "8", "5", 5, "", 5, 8, "NORMAL", "Y", 1.0, "SCREENING 1", -7, "SCREENING", "2014-01-25T09:26", -13], [476, "CDISCPILOT01", "LB", "01-701-1275", 64, "PH", "pH", "URINALYSIS", "7.0", "", "5", "8", "7", 7, "", 5, 8, "NORMAL", "", 4.0, "WEEK 2", 14, "TREATMENT", "2014-02-22T08:22", 16], [477, "CDISCPILOT01", "LB", "01-701-1275", 186, "PH", "pH", "URINALYSIS", "6.0", "", "5", "8", "6", 6, "", 5, 8, "NORMAL", "", 9.0, "WEEK 12", 84, "TREATMENT", "2014-05-03T08:15", 86], [478, "CDISCPILOT01", "LB", "01-701-1275", 221, "PH", "pH", "URINALYSIS", "6.0", "", "5", "8", "6", 6, "", 5, 8, "NORMAL", "", 10.0, "WEEK 16", 112, "TREATMENT", "2014-06-14T12:35", 128], [479, "CDISCPILOT01", "LB", "01-701-1275", 32, "SPGRAV", "Specific Gravity", "URINALYSIS", "1.022", "", "1.006", "1.03", "1.022", 1, "", 1, 1, "NORMAL", "Y", 1.0, "SCREENING 1", -7, "SCREENING", "2014-01-25T09:26", -13], [480, "CDISCPILOT01", "LB", "01-701-1275", 69, "SPGRAV", "Specific Gravity", "URINALYSIS", "1.022", "", "1.006", "1.03", "1.022", 1, "", 1, 1, "NORMAL", "", 4.0, "WEEK 2", 14, "TREATMENT", "2014-02-22T08:22", 16], [481, "CDISCPILOT01", "LB", "01-701-1275", 191, "SPGRAV", "Specific Gravity", "URINALYSIS", "1.021", "", "1.006", "1.03", "1.021", 1, "", 1, 1, "NORMAL", "", 9.0, "WEEK 12", 84, "TREATMENT", "2014-05-03T08:15", 86], [482, "CDISCPILOT01", "LB", "01-701-1275", 226, "SPGRAV", "Specific Gravity", "URINALYSIS", "1.023", "", "1.006", "1.03", "1.023", 1, "", 1, 1, "NORMAL", "", 10.0, "WEEK 16", 112, "TREATMENT", "2014-06-14T12:35", 128], [483, "CDISCPILOT01", "LB", "01-701-1275", 33, "TSH", "Thyrotropin", "OTHER", "1.42", "mIU/L", "0.32", "5", "1.42", 1, "mU/L", 0, 5, "NORMAL", "Y", 1.0, "SCREENING 1", -7, "SCREENING", "2014-01-25T09:26", -13], [484, "CDISCPILOT01", "LB", "01-701-1275", 35, "UROBIL", "Urobilinogen", "URINALYSIS", "0", "", "", "", "0", 0, "", null, null, "NORMAL", "Y", 1.0, "SCREENING 1", -7, "SCREENING", "2014-01-25T09:26", -13], [485, "CDISCPILOT01", "LB", "01-701-1275", 71, "UROBIL", "Urobilinogen", "URINALYSIS", "0", "", "", "", "0", 0, "", null, null, "NORMAL", "", 4.0, "WEEK 2", 14, "TREATMENT", "2014-02-22T08:22", 16], [486, "CDISCPILOT01", "LB", "01-701-1275", 193, "UROBIL", "Urobilinogen", "URINALYSIS", "0", "", "", "", "0", 0, "", null, null, "NORMAL", "", 9.0, "WEEK 12", 84, "TREATMENT", "2014-05-03T08:15", 86], [487, "CDISCPILOT01", "LB", "01-701-1275", 228, "UROBIL", "Urobilinogen", "URINALYSIS", "0", "", "", "", "0", 0, "", null, null, "NORMAL", "", 10.0, "WEEK 16", 112, "TREATMENT", "2014-06-14T12:35", 128], [488, "CDISCPILOT01", "LB", "01-701-1275", 36, "VITB12", "Vitamin B12", "OTHER", "271", "ng/L", "200", "900", "199.9438", 199, "pmol/L", 148, 664, "NORMAL", "Y", 1.0, "SCREENING 1", -7, "SCREENING", "2014-01-25T09:26", -13], [489, "CDISCPILOT01", "LB", "01-701-1287", 12, "COLOR", "Color", "URINALYSIS", "N", "", "", "", "N", null, "", null, null, "NORMAL", "Y", 1.0, "SCREENING 1", -7, "SCREENING", "2014-01-17T12:16", -8], [490, "CDISCPILOT01", "LB", "01-701-1287", 49, "COLOR", "Color", "URINALYSIS", "N", "", "", "", "N", null, "", null, null, "NORMAL", "", 4.0, "WEEK 2", 14, "TREATMENT", "2014-02-11T10:50", 18], [491, "CDISCPILOT01", "LB", "01-701-1287", 174, "COLOR", "Color", "URINALYSIS", "N", "", "", "", "N", null, "", null, null, "NORMAL", "", 9.0, "WEEK 12", 84, "TREATMENT", "2014-04-17T14:00", 83], [492, "CDISCPILOT01", "LB", "01-701-1287", 270, "COLOR", "Color", "URINALYSIS", "N", "", "", "", "N", null, "", null, null, "NORMAL", "", 12.0, "WEEK 24", 168, "TREATMENT", "2014-07-12T14:10", 169], [493, "CDISCPILOT01", "LB", "01-701-1287", 20, "KETONES", "Ketones", "URINALYSIS", "0", "", "", "", "0", 0, "", null, null, "NORMAL", "Y", 1.0, "SCREENING 1", -7, "SCREENING", "2014-01-17T12:16", -8], [494, "CDISCPILOT01", "LB", "01-701-1287", 57, "KETONES", "Ketones", "URINALYSIS", "0", "", "", "", "0", 0, "", null, null, "NORMAL", "", 4.0, "WEEK 2", 14, "TREATMENT", "2014-02-11T10:50", 18], [495, "CDISCPILOT01", "LB", "01-701-1287", 182, "KETONES", "Ketones", "URINALYSIS", "0", "", "", "", "0", 0, "", null, null, "NORMAL", "", 9.0, "WEEK 12", 84, "TREATMENT", "2014-04-17T14:00", 83], [496, "CDISCPILOT01", "LB", "01-701-1287", 278, "KETONES", "Ketones", "URINALYSIS", "0", "", "", "", "0", 0, "", null, null, "NORMAL", "", 12.0, "WEEK 24", 168, "TREATMENT", "2014-07-12T14:10", 169], [497, "CDISCPILOT01", "LB", "01-701-1287", 27, "PH", "pH", "URINALYSIS", "6.0", "", "5", "8", "6", 6, "", 5, 8, "NORMAL", "Y", 1.0, "SCREENING 1", -7, "SCREENING", "2014-01-17T12:16", -8], [498, "CDISCPILOT01", "LB", "01-701-1287", 64, "PH", "pH", "URINALYSIS", "5.0", "", "5", "8", "5", 5, "", 5, 8, "NORMAL", "", 4.0, "WEEK 2", 14, "TREATMENT", "2014-02-11T10:50", 18], [499, "CDISCPILOT01", "LB", "01-701-1287", 189, "PH", "pH", "URINALYSIS", "5.0", "", "5", "8", "5", 5, "", 5, 8, "NORMAL", "", 9.0, "WEEK 12", 84, "TREATMENT", "2014-04-17T14:00", 83], [500, "CDISCPILOT01", "LB", "01-701-1287", 286, "PH", "pH", "URINALYSIS", "7.0", "", "5", "8", "7", 7, "", 5, 8, "NORMAL", "", 12.0, "WEEK 24", 168, "TREATMENT", "2014-07-12T14:10", 169], [501, "CDISCPILOT01", "LB", "01-701-1287", 32, "SPGRAV", "Specific Gravity", "URINALYSIS", "1.009", "", "1.01", "1.034", "1.009", 1, "", 1, 1, "LOW", "Y", 1.0, "SCREENING 1", -7, "SCREENING", "2014-01-17T12:16", -8], [502, "CDISCPILOT01", "LB", "01-701-1287", 69, "SPGRAV", "Specific Gravity", "URINALYSIS", "1.007", "", "1.01", "1.034", "1.007", 1, "", 1, 1, "LOW", "", 4.0, "WEEK 2", 14, "TREATMENT", "2014-02-11T10:50", 18], [503, "CDISCPILOT01", "LB", "01-701-1287", 194, "SPGRAV", "Specific Gravity", "URINALYSIS", "1.008", "", "1.01", "1.034", "1.008", 1, "", 1, 1, "LOW", "", 9.0, "WEEK 12", 84, "TREATMENT", "2014-04-17T14:00", 83], [504, "CDISCPILOT01", "LB", "01-701-1287", 291, "SPGRAV", "Specific Gravity", "URINALYSIS", "1.013", "", "1.01", "1.034", "1.013", 1, "", 1, 1, "NORMAL", "", 12.0, "WEEK 24", 168, "TREATMENT", "2014-07-12T14:10", 169], [505, "CDISCPILOT01", "LB", "01-701-1287", 33, "TSH", "Thyrotropin", "OTHER", "2.09", "mIU/L", "0.32", "5", "2.09", 2, "mU/L", 0, 5, "NORMAL", "Y", 1.0, "SCREENING 1", -7, "SCREENING", "2014-01-17T12:16", -8], [506, "CDISCPILOT01", "LB", "01-701-1287", 35, "UROBIL", "Urobilinogen", "URINALYSIS", "0", "", "", "", "0", 0, "", null, null, "NORMAL", "Y", 1.0, "SCREENING 1", -7, "SCREENING", "2014-01-17T12:16", -8], [507, "CDISCPILOT01", "LB", "01-701-1287", 71, "UROBIL", "Urobilinogen", "URINALYSIS", "0", "", "", "", "0", 0, "", null, null, "NORMAL", "", 4.0, "WEEK 2", 14, "TREATMENT", "2014-02-11T10:50", 18], [508, "CDISCPILOT01", "LB", "01-701-1287", 196, "UROBIL", "Urobilinogen", "URINALYSIS", "0", "", "", "", "0", 0, "", null, null, "NORMAL", "", 9.0, "WEEK 12", 84, "TREATMENT", "2014-04-17T14:00", 83], [509, "CDISCPILOT01", "LB", "01-701-1287", 293, "UROBIL", "Urobilinogen", "URINALYSIS", "0", "", "", "", "0", 0, "", null, null, "NORMAL", "", 12.0, "WEEK 24", 168, "TREATMENT", "2014-07-12T14:10", 169], [510, "CDISCPILOT01", "LB", "01-701-1287", 36, "VITB12", "Vitamin B12", "OTHER", "446", "ng/L", "200", "900", "329.0588", 329, "pmol/L", 148, 664, "NORMAL", "Y", 1.0, "SCREENING 1", -7, "SCREENING", "2014-01-17T12:16", -8], [511, "CDISCPILOT01", "LB", "01-701-1294", 12, "COLOR", "Color", "URINALYSIS", "N", "", "", "", "N", null, "", null, null, "NORMAL", "Y", 1.0, "SCREENING 1", -7, "SCREENING", "2013-03-17T12:03", -7], [512, "CDISCPILOT01", "LB", "01-701-1294", 49, "COLOR", "Color", "URINALYSIS", "N", "", "", "", "N", null, "", null, null, "NORMAL", "", 4.0, "WEEK 2", 14, "TREATMENT", "2013-04-10T08:57", 18], [513, "CDISCPILOT01", "LB", "01-701-1294", 174, "COLOR", "Color", "URINALYSIS", "N", "", "", "", "N", null, "", null, null, "NORMAL", "", 9.0, "WEEK 12", 84, "TREATMENT", "2013-06-14T09:47", 83], [514, "CDISCPILOT01", "LB", "01-701-1294", 20, "KETONES", "Ketones", "URINALYSIS", "0", "", "", "", "0", 0, "", null, null, "NORMAL", "Y", 1.0, "SCREENING 1", -7, "SCREENING", "2013-03-17T12:03", -7], [515, "CDISCPILOT01", "LB", "01-701-1294", 57, "KETONES", "Ketones", "URINALYSIS", "0", "", "", "", "0", 0, "", null, null, "NORMAL", "", 4.0, "WEEK 2", 14, "TREATMENT", "2013-04-10T08:57", 18], [516, "CDISCPILOT01", "LB", "01-701-1294", 182, "KETONES", "Ketones", "URINALYSIS", "0", "", "", "", "0", 0, "", null, null, "NORMAL", "", 9.0, "WEEK 12", 84, "TREATMENT", "2013-06-14T09:47", 83], [517, "CDISCPILOT01", "LB", "01-701-1294", 27, "PH", "pH", "URINALYSIS", "5.0", "", "5", "8", "5", 5, "", 5, 8, "NORMAL", "Y", 1.0, "SCREENING 1", -7, "SCREENING", "2013-03-17T12:03", -7], [518, "CDISCPILOT01", "LB", "01-701-1294", 64, "PH", "pH", "URINALYSIS", "5.0", "", "5", "8", "5", 5, "", 5, 8, "NORMAL", "", 4.0, "WEEK 2", 14, "TREATMENT", "2013-04-10T08:57", 18], [519, "CDISCPILOT01", "LB", "01-701-1294", 189, "PH", "pH", "URINALYSIS", "5.0", "", "5", "8", "5", 5, "", 5, 8, "NORMAL", "", 9.0, "WEEK 12", 84, "TREATMENT", "2013-06-14T09:47", 83], [520, "CDISCPILOT01", "LB", "01-701-1294", 32, "SPGRAV", "Specific Gravity", "URINALYSIS", "1.018", "", "1.006", "1.03", "1.018", 1, "", 1, 1, "NORMAL", "Y", 1.0, "SCREENING 1", -7, "SCREENING", "2013-03-17T12:03", -7], [521, "CDISCPILOT01", "LB", "01-701-1294", 69, "SPGRAV", "Specific Gravity", "URINALYSIS", "1.018", "", "1.006", "1.03", "1.018", 1, "", 1, 1, "NORMAL", "", 4.0, "WEEK 2", 14, "TREATMENT", "2013-04-10T08:57", 18], [522, "CDISCPILOT01", "LB", "01-701-1294", 194, "SPGRAV", "Specific Gravity", "URINALYSIS", "1.017", "", "1.006", "1.03", "1.017", 1, "", 1, 1, "NORMAL", "", 9.0, "WEEK 12", 84, "TREATMENT", "2013-06-14T09:47", 83], [523, "CDISCPILOT01", "LB", "01-701-1294", 33, "TSH", "Thyrotropin", "OTHER", "1.85", "mIU/L", "0.32", "5", "1.85", 1, "mU/L", 0, 5, "NORMAL", "Y", 1.0, "SCREENING 1", -7, "SCREENING", "2013-03-17T12:03", -7], [524, "CDISCPILOT01", "LB", "01-701-1294", 35, "UROBIL", "Urobilinogen", "URINALYSIS", "0", "", "", "", "0", 0, "", null, null, "NORMAL", "Y", 1.0, "SCREENING 1", -7, "SCREENING", "2013-03-17T12:03", -7], [525, "CDISCPILOT01", "LB", "01-701-1294", 71, "UROBIL", "Urobilinogen", "URINALYSIS", "0", "", "", "", "0", 0, "", null, null, "NORMAL", "", 4.0, "WEEK 2", 14, "TREATMENT", "2013-04-10T08:57", 18], [526, "CDISCPILOT01", "LB", "01-701-1294", 196, "UROBIL", "Urobilinogen", "URINALYSIS", "0", "", "", "", "0", 0, "", null, null, "NORMAL", "", 9.0, "WEEK 12", 84, "TREATMENT", "2013-06-14T09:47", 83], [527, "CDISCPILOT01", "LB", "01-701-1294", 36, "VITB12", "Vitamin B12", "OTHER", "366", "ng/L", "200", "900", "270.0348", 270, "pmol/L", 148, 664, "NORMAL", "Y", 1.0, "SCREENING 1", -7, "SCREENING", "2013-03-17T12:03", -7], [528, "CDISCPILOT01", "LB", "01-701-1302", 12, "COLOR", "Color", "URINALYSIS", "N", "", "", "", "N", null, "", null, null, "NORMAL", "Y", 1.0, "SCREENING 1", -7, "SCREENING", "2013-08-20T12:27", -9], [529, "CDISCPILOT01", "LB", "01-701-1302", 49, "COLOR", "Color", "URINALYSIS", "N", "", "", "", "N", null, "", null, null, "NORMAL", "", 4.0, "WEEK 2", 14, "TREATMENT", "2013-09-15T12:44", 18], [530, "CDISCPILOT01", "LB", "01-701-1302", 174, "COLOR", "Color", "URINALYSIS", "N", "", "", "", "N", null, "", null, null, "NORMAL", "", 9.0, "WEEK 12", 84, "TREATMENT", "2013-11-05T13:54", 69], [531, "CDISCPILOT01", "LB", "01-701-1302", 20, "KETONES", "Ketones", "URINALYSIS", "0", "", "", "", "0", 0, "", null, null, "NORMAL", "Y", 1.0, "SCREENING 1", -7, "SCREENING", "2013-08-20T12:27", -9], [532, "CDISCPILOT01", "LB", "01-701-1302", 57, "KETONES", "Ketones", "URINALYSIS", "0", "", "", "", "0", 0, "", null, null, "NORMAL", "", 4.0, "WEEK 2", 14, "TREATMENT", "2013-09-15T12:44", 18], [533, "CDISCPILOT01", "LB", "01-701-1302", 182, "KETONES", "Ketones", "URINALYSIS", "0", "", "", "", "0", 0, "", null, null, "NORMAL", "", 9.0, "WEEK 12", 84, "TREATMENT", "2013-11-05T13:54", 69], [534, "CDISCPILOT01", "LB", "01-701-1302", 27, "PH", "pH", "URINALYSIS", "5.0", "", "5", "8", "5", 5, "", 5, 8, "NORMAL", "Y", 1.0, "SCREENING 1", -7, "SCREENING", "2013-08-20T12:27", -9], [535, "CDISCPILOT01", "LB", "01-701-1302", 64, "PH", "pH", "URINALYSIS", "5.0", "", "5", "8", "5", 5, "", 5, 8, "NORMAL", "", 4.0, "WEEK 2", 14, "TREATMENT", "2013-09-15T12:44", 18], [536, "CDISCPILOT01", "LB", "01-701-1302", 189, "PH", "pH", "URINALYSIS", "5.0", "", "5", "8", "5", 5, "", 5, 8, "NORMAL", "", 9.0, "WEEK 12", 84, "TREATMENT", "2013-11-05T13:54", 69], [537, "CDISCPILOT01", "LB", "01-701-1302", 32, "SPGRAV", "Specific Gravity", "URINALYSIS", "1.021", "", "1.006", "1.03", "1.021", 1, "", 1, 1, "NORMAL", "Y", 1.0, "SCREENING 1", -7, "SCREENING", "2013-08-20T12:27", -9], [538, "CDISCPILOT01", "LB", "01-701-1302", 69, "SPGRAV", "Specific Gravity", "URINALYSIS", "1.021", "", "1.006", "1.03", "1.021", 1, "", 1, 1, "NORMAL", "", 4.0, "WEEK 2", 14, "TREATMENT", "2013-09-15T12:44", 18], [539, "CDISCPILOT01", "LB", "01-701-1302", 194, "SPGRAV", "Specific Gravity", "URINALYSIS", "1.013", "", "1.006", "1.03", "1.013", 1, "", 1, 1, "NORMAL", "", 9.0, "WEEK 12", 84, "TREATMENT", "2013-11-05T13:54", 69], [540, "CDISCPILOT01", "LB", "01-701-1302", 33, "TSH", "Thyrotropin", "OTHER", "1.89", "mIU/L", "0.32", "5", "1.89", 1, "mU/L", 0, 5, "NORMAL", "Y", 1.0, "SCREENING 1", -7, "SCREENING", "2013-08-20T12:27", -9], [541, "CDISCPILOT01", "LB", "01-701-1302", 35, "UROBIL", "Urobilinogen", "URINALYSIS", "0", "", "", "", "0", 0, "", null, null, "NORMAL", "Y", 1.0, "SCREENING 1", -7, "SCREENING", "2013-08-20T12:27", -9], [542, "CDISCPILOT01", "LB", "01-701-1302", 71, "UROBIL", "Urobilinogen", "URINALYSIS", "0", "", "", "", "0", 0, "", null, null, "NORMAL", "", 4.0, "WEEK 2", 14, "TREATMENT", "2013-09-15T12:44", 18], [543, "CDISCPILOT01", "LB", "01-701-1302", 196, "UROBIL", "Urobilinogen", "URINALYSIS", "0", "", "", "", "0", 0, "", null, null, "NORMAL", "", 9.0, "WEEK 12", 84, "TREATMENT", "2013-11-05T13:54", 69], [544, "CDISCPILOT01", "LB", "01-701-1302", 36, "VITB12", "Vitamin B12", "OTHER", "714", "ng/L", "200", "900", "526.7892", 526, "pmol/L", 148, 664, "NORMAL", "Y", 1.0, "SCREENING 1", -7, "SCREENING", "2013-08-20T12:27", -9], [545, "CDISCPILOT01", "LB", "01-701-1317", 12, "COLOR", "Color", "URINALYSIS", "N", "", "", "", "N", null, "", null, null, "NORMAL", "Y", 1.0, "SCREENING 1", -7, "SCREENING", "2014-05-13T10:44", -9], [546, "CDISCPILOT01", "LB", "01-701-1317", 49, "COLOR", "Color", "URINALYSIS", "N", "", "", "", "N", null, "", null, null, "NORMAL", "", 1.1, "UNSCHEDULED 1.1", null, "SCREENING", "2014-05-10T15:37", -12], [547, "CDISCPILOT01", "LB", "01-701-1317", 80, "COLOR", "Color", "URINALYSIS", "N", "", "", "", "N", null, "", null, null, "NORMAL", "", 4.0, "WEEK 2", 14, "TREATMENT", "2014-06-05T08:25", 15], [548, "CDISCPILOT01", "LB", "01-701-1317", 205, "COLOR", "Color", "URINALYSIS", "N", "", "", "", "N", null, "", null, null, "NORMAL", "", 9.0, "WEEK 12", 84, "TREATMENT", "2014-08-15T14:12", 86], [549, "CDISCPILOT01", "LB", "01-701-1317", 300, "COLOR", "Color", "URINALYSIS", "N", "", "", "", "N", null, "", null, null, "NORMAL", "", 12.0, "WEEK 24", 168, "TREATMENT", "2014-11-06T13:15", 169], [550, "CDISCPILOT01", "LB", "01-701-1317", 20, "KETONES", "Ketones", "URINALYSIS", "0", "", "", "", "0", 0, "", null, null, "NORMAL", "Y", 1.0, "SCREENING 1", -7, "SCREENING", "2014-05-13T10:44", -9], [551, "CDISCPILOT01", "LB", "01-701-1317", 54, "KETONES", "Ketones", "URINALYSIS", "0", "", "", "", "0", 0, "", null, null, "NORMAL", "", 1.1, "UNSCHEDULED 1.1", null, "SCREENING", "2014-05-10T15:37", -12], [552, "CDISCPILOT01", "LB", "01-701-1317", 88, "KETONES", "Ketones", "URINALYSIS", "0", "", "", "", "0", 0, "", null, null, "NORMAL", "", 4.0, "WEEK 2", 14, "TREATMENT", "2014-06-05T08:25", 15], [553, "CDISCPILOT01", "LB", "01-701-1317", 213, "KETONES", "Ketones", "URINALYSIS", "0", "", "", "", "0", 0, "", null, null, "NORMAL", "", 9.0, "WEEK 12", 84, "TREATMENT", "2014-08-15T14:12", 86], [554, "CDISCPILOT01", "LB", "01-701-1317", 308, "KETONES", "Ketones", "URINALYSIS", "0", "", "", "", "0", 0, "", null, null, "NORMAL", "", 12.0, "WEEK 24", 168, "TREATMENT", "2014-11-06T13:15", 169], [555, "CDISCPILOT01", "LB", "01-701-1317", 27, "PH", "pH", "URINALYSIS", "5.0", "", "5", "8", "5", 5, "", 5, 8, "NORMAL", "Y", 1.0, "SCREENING 1", -7, "SCREENING", "2014-05-13T10:44", -9], [556, "CDISCPILOT01", "LB", "01-701-1317", 59, "PH", "pH", "URINALYSIS", "6.0", "", "5", "8", "6", 6, "", 5, 8, "NORMAL", "", 1.1, "UNSCHEDULED 1.1", null, "SCREENING", "2014-05-10T15:37", -12], [557, "CDISCPILOT01", "LB", "01-701-1317", 95, "PH", "pH", "URINALYSIS", "5.0", "", "5", "8", "5", 5, "", 5, 8, "NORMAL", "", 4.0, "WEEK 2", 14, "TREATMENT", "2014-06-05T08:25", 15], [558, "CDISCPILOT01", "LB", "01-701-1317", 220, "PH", "pH", "URINALYSIS", "5.0", "", "5", "8", "5", 5, "", 5, 8, "NORMAL", "", 9.0, "WEEK 12", 84, "TREATMENT", "2014-08-15T14:12", 86], [559, "CDISCPILOT01", "LB", "01-701-1317", 315, "PH", "pH", "URINALYSIS", "6.0", "", "5", "8", "6", 6, "", 5, 8, "NORMAL", "", 12.0, "WEEK 24", 168, "TREATMENT", "2014-11-06T13:15", 169], [560, "CDISCPILOT01", "LB", "01-701-1317", 32, "SPGRAV", "Specific Gravity", "URINALYSIS", "1.021", "", "1.006", "1.03", "1.021", 1, "", 1, 1, "NORMAL", "Y", 1.0, "SCREENING 1", -7, "SCREENING", "2014-05-13T10:44", -9], [561, "CDISCPILOT01", "LB", "01-701-1317", 63, "SPGRAV", "Specific Gravity", "URINALYSIS", "1.018", "", "1.006", "1.03", "1.018", 1, "", 1, 1, "NORMAL", "", 1.1, "UNSCHEDULED 1.1", null, "SCREENING", "2014-05-10T15:37", -12], [562, "CDISCPILOT01", "LB", "01-701-1317", 100, "SPGRAV", "Specific Gravity", "URINALYSIS", "1.022", "", "1.006", "1.03", "1.022", 1, "", 1, 1, "NORMAL", "", 4.0, "WEEK 2", 14, "TREATMENT", "2014-06-05T08:25", 15], [563, "CDISCPILOT01", "LB", "01-701-1317", 225, "SPGRAV", "Specific Gravity", "URINALYSIS", "1.027", "", "1.006", "1.03", "1.027", 1, "", 1, 1, "NORMAL", "", 9.0, "WEEK 12", 84, "TREATMENT", "2014-08-15T14:12", 86], [564, "CDISCPILOT01", "LB", "01-701-1317", 320, "SPGRAV", "Specific Gravity", "URINALYSIS", "1.030", "", "1.006", "1.03", "1.03", 1, "", 1, 1, "NORMAL", "", 12.0, "WEEK 24", 168, "TREATMENT", "2014-11-06T13:15", 169], [565, "CDISCPILOT01", "LB", "01-701-1317", 33, "TSH", "Thyrotropin", "OTHER", "0.78", "mIU/L", "0.32", "5", "0.78", 0, "mU/L", 0, 5, "NORMAL", "Y", 1.0, "SCREENING 1", -7, "SCREENING", "2014-05-13T10:44", -9], [566, "CDISCPILOT01", "LB", "01-701-1317", 64, "TSH", "Thyrotropin", "OTHER", "0.86", "mIU/L", "0.32", "5", "0.86", 0, "mU/L", 0, 5, "NORMAL", "", 1.1, "UNSCHEDULED 1.1", null, "SCREENING", "2014-05-10T15:37", -12], [567, "CDISCPILOT01", "LB", "01-701-1317", 35, "UROBIL", "Urobilinogen", "URINALYSIS", "0", "", "", "", "0", 0, "", null, null, "NORMAL", "Y", 1.0, "SCREENING 1", -7, "SCREENING", "2014-05-13T10:44", -9], [568, "CDISCPILOT01", "LB", "01-701-1317", 66, "UROBIL", "Urobilinogen", "URINALYSIS", "0", "", "", "", "0", 0, "", null, null, "NORMAL", "", 1.1, "UNSCHEDULED 1.1", null, "SCREENING", "2014-05-10T15:37", -12], [569, "CDISCPILOT01", "LB", "01-701-1317", 102, "UROBIL", "Urobilinogen", "URINALYSIS", "0", "", "", "", "0", 0, "", null, null, "NORMAL", "", 4.0, "WEEK 2", 14, "TREATMENT", "2014-06-05T08:25", 15], [570, "CDISCPILOT01", "LB", "01-701-1317", 227, "UROBIL", "Urobilinogen", "URINALYSIS", "0", "", "", "", "0", 0, "", null, null, "NORMAL", "", 9.0, "WEEK 12", 84, "TREATMENT", "2014-08-15T14:12", 86], [571, "CDISCPILOT01", "LB", "01-701-1317", 322, "UROBIL", "Urobilinogen", "URINALYSIS", "0", "", "", "", "0", 0, "", null, null, "NORMAL", "", 12.0, "WEEK 24", 168, "TREATMENT", "2014-11-06T13:15", 169], [572, "CDISCPILOT01", "LB", "01-701-1317", 36, "VITB12", "Vitamin B12", "OTHER", "532", "ng/L", "200", "900", "392.5096", 392, "pmol/L", 148, 664, "NORMAL", "Y", 1.0, "SCREENING 1", -7, "SCREENING", "2014-05-13T10:44", -9], [573, "CDISCPILOT01", "LB", "01-701-1317", 67, "VITB12", "Vitamin B12", "OTHER", "821", "ng/L", "200", "900", "605.7338", 605, "pmol/L", 148, 664, "NORMAL", "", 1.1, "UNSCHEDULED 1.1", null, "SCREENING", "2014-05-10T15:37", -12], [574, "CDISCPILOT01", "LB", "01-701-1324", 12, "COLOR", "Color", "URINALYSIS", "N", "", "", "", "N", null, "", null, null, "NORMAL", "Y", 1.0, "SCREENING 1", -7, "SCREENING", "2012-09-16T13:35", -16], [575, "CDISCPILOT01", "LB", "01-701-1324", 59, "COLOR", "Color", "URINALYSIS", "N", "", "", "", "N", null, "", null, null, "NORMAL", "", 4.1, "UNSCHEDULED 4.1", null, "TREATMENT", "2012-10-25T10:11", 24], [576, "CDISCPILOT01", "LB", "01-701-1324", 183, "COLOR", "Color", "URINALYSIS", "N", "", "", "", "N", null, "", null, null, "NORMAL", "", 9.0, "WEEK 12", 84, "TREATMENT", "2012-12-25T08:58", 85], [577, "CDISCPILOT01", "LB", "01-701-1324", 278, "COLOR", "Color", "URINALYSIS", "N", "", "", "", "N", null, "", null, null, "NORMAL", "", 12.0, "WEEK 24", 168, "TREATMENT", "2013-03-19T12:25", 169], [578, "CDISCPILOT01", "LB", "01-701-1324", 20, "KETONES", "Ketones", "URINALYSIS", "0", "", "", "", "0", 0, "", null, null, "NORMAL", "Y", 1.0, "SCREENING 1", -7, "SCREENING", "2012-09-16T13:35", -16], [579, "CDISCPILOT01", "LB", "01-701-1324", 66, "KETONES", "Ketones", "URINALYSIS", "0", "", "", "", "0", 0, "", null, null, "NORMAL", "", 4.1, "UNSCHEDULED 4.1", null, "TREATMENT", "2012-10-25T10:11", 24], [580, "CDISCPILOT01", "LB", "01-701-1324", 191, "KETONES", "Ketones", "URINALYSIS", "0", "", "", "", "0", 0, "", null, null, "NORMAL", "", 9.0, "WEEK 12", 84, "TREATMENT", "2012-12-25T08:58", 85], [581, "CDISCPILOT01", "LB", "01-701-1324", 286, "KETONES", "Ketones", "URINALYSIS", "0", "", "", "", "0", 0, "", null, null, "NORMAL", "", 12.0, "WEEK 24", 168, "TREATMENT", "2013-03-19T12:25", 169], [582, "CDISCPILOT01", "LB", "01-701-1324", 27, "PH", "pH", "URINALYSIS", "5.0", "", "5", "8", "5", 5, "", 5, 8, "NORMAL", "Y", 1.0, "SCREENING 1", -7, "SCREENING", "2012-09-16T13:35", -16], [583, "CDISCPILOT01", "LB", "01-701-1324", 72, "PH", "pH", "URINALYSIS", "5.0", "", "5", "8", "5", 5, "", 5, 8, "NORMAL", "", 4.1, "UNSCHEDULED 4.1", null, "TREATMENT", "2012-10-25T10:11", 24], [584, "CDISCPILOT01", "LB", "01-701-1324", 198, "PH", "pH", "URINALYSIS", "5.0", "", "5", "8", "5", 5, "", 5, 8, "NORMAL", "", 9.0, "WEEK 12", 84, "TREATMENT", "2012-12-25T08:58", 85], [585, "CDISCPILOT01", "LB", "01-701-1324", 293, "PH", "pH", "URINALYSIS", "5.0", "", "5", "8", "5", 5, "", 5, 8, "NORMAL", "", 12.0, "WEEK 24", 168, "TREATMENT", "2013-03-19T12:25", 169], [586, "CDISCPILOT01", "LB", "01-701-1324", 31, "SPGRAV", "Specific Gravity", "URINALYSIS", "1.010", "", "1.006", "1.03", "1.01", 1, "", 1, 1, "NORMAL", "Y", 1.0, "SCREENING 1", -7, "SCREENING", "2012-09-16T13:35", -16], [587, "CDISCPILOT01", "LB", "01-701-1324", 77, "SPGRAV", "Specific Gravity", "URINALYSIS", "1.023", "", "1.006", "1.03", "1.023", 1, "", 1, 1, "NORMAL", "", 4.1, "UNSCHEDULED 4.1", null, "TREATMENT", "2012-10-25T10:11", 24], [588, "CDISCPILOT01", "LB", "01-701-1324", 203, "SPGRAV", "Specific Gravity", "URINALYSIS", "1.021", "", "1.006", "1.03", "1.021", 1, "", 1, 1, "NORMAL", "", 9.0, "WEEK 12", 84, "TREATMENT", "2012-12-25T08:58", 85], [589, "CDISCPILOT01", "LB", "01-701-1324", 298, "SPGRAV", "Specific Gravity", "URINALYSIS", "1.029", "", "1.006", "1.03", "1.029", 1, "", 1, 1, "NORMAL", "", 12.0, "WEEK 24", 168, "TREATMENT", "2013-03-19T12:25", 169], [590, "CDISCPILOT01", "LB", "01-701-1324", 32, "TSH", "Thyrotropin", "OTHER", "1.31", "mIU/L", "0.32", "5", "1.31", 1, "mU/L", 0, 5, "NORMAL", "Y", 1.0, "SCREENING 1", -7, "SCREENING", "2012-09-16T13:35", -16], [591, "CDISCPILOT01", "LB", "01-701-1324", 34, "UROBIL", "Urobilinogen", "URINALYSIS", "0", "", "", "", "0", 0, "", null, null, "NORMAL", "Y", 1.0, "SCREENING 1", -7, "SCREENING", "2012-09-16T13:35", -16], [592, "CDISCPILOT01", "LB", "01-701-1324", 79, "UROBIL", "Urobilinogen", "URINALYSIS", "0", "", "", "", "0", 0, "", null, null, "NORMAL", "", 4.1, "UNSCHEDULED 4.1", null, "TREATMENT", "2012-10-25T10:11", 24], [593, "CDISCPILOT01", "LB", "01-701-1324", 205, "UROBIL", "Urobilinogen", "URINALYSIS", "0", "", "", "", "0", 0, "", null, null, "NORMAL", "", 9.0, "WEEK 12", 84, "TREATMENT", "2012-12-25T08:58", 85], [594, "CDISCPILOT01", "LB", "01-701-1324", 300, "UROBIL", "Urobilinogen", "URINALYSIS", "0", "", "", "", "0", 0, "", null, null, "NORMAL", "", 12.0, "WEEK 24", 168, "TREATMENT", "2013-03-19T12:25", 169], [595, "CDISCPILOT01", "LB", "01-701-1324", 35, "VITB12", "Vitamin B12", "OTHER", "317", "ng/L", "200", "900", "233.8826", 233, "pmol/L", 148, 664, "NORMAL", "Y", 1.0, "SCREENING 1", -7, "SCREENING", "2012-09-16T13:35", -16], [596, "CDISCPILOT01", "LB", "01-701-1324", 80, "VITB12", "Vitamin B12", "OTHER", "432", "ng/L", "200", "900", "318.7296", 318, "pmol/L", 148, 664, "NORMAL", "", 4.1, "UNSCHEDULED 4.1", null, "TREATMENT", "2012-10-25T10:11", 24], [597, "CDISCPILOT01", "LB", "01-701-1341", 12, "COLOR", "Color", "URINALYSIS", "N", "", "", "", "N", null, "", null, null, "NORMAL", "Y", 1.0, "SCREENING 1", -7, "SCREENING", "2012-12-22T14:56", -14], [598, "CDISCPILOT01", "LB", "01-701-1341", 65, "COLOR", "Color", "URINALYSIS", "N", "", "", "", "N", null, "", null, null, "NORMAL", "", 4.0, "WEEK 2", 14, "TREATMENT", "2013-01-18T12:00", 14], [599, "CDISCPILOT01", "LB", "01-701-1341", 100, "COLOR", "Color", "URINALYSIS", "N", "", "", "", "N", null, "", null, null, "NORMAL", "", 5.0, "WEEK 4", 28, "TREATMENT", "2013-02-07T15:16", 34], [600, "CDISCPILOT01", "LB", "01-701-1341", 20, "KETONES", "Ketones", "URINALYSIS", "0", "", "", "", "0", 0, "", null, null, "NORMAL", "Y", 1.0, "SCREENING 1", -7, "SCREENING", "2012-12-22T14:56", -14], [601, "CDISCPILOT01", "LB", "01-701-1341", 73, "KETONES", "Ketones", "URINALYSIS", "0", "", "", "", "0", 0, "", null, null, "NORMAL", "", 4.0, "WEEK 2", 14, "TREATMENT", "2013-01-18T12:00", 14], [602, "CDISCPILOT01", "LB", "01-701-1341", 108, "KETONES", "Ketones", "URINALYSIS", "1", "", "", "", "1", 1, "", null, null, "ABNORMAL", "", 5.0, "WEEK 4", 28, "TREATMENT", "2013-02-07T15:16", 34], [603, "CDISCPILOT01", "LB", "01-701-1341", 27, "PH", "pH", "URINALYSIS", "5.0", "", "5", "8", "5", 5, "", 5, 8, "NORMAL", "Y", 1.0, "SCREENING 1", -7, "SCREENING", "2012-12-22T14:56", -14], [604, "CDISCPILOT01", "LB", "01-701-1341", 80, "PH", "pH", "URINALYSIS", "7.0", "", "5", "8", "7", 7, "", 5, 8, "NORMAL", "", 4.0, "WEEK 2", 14, "TREATMENT", "2013-01-18T12:00", 14], [605, "CDISCPILOT01", "LB", "01-701-1341", 115, "PH", "pH", "URINALYSIS", "5.0", "", "5", "8", "5", 5, "", 5, 8, "NORMAL", "", 5.0, "WEEK 4", 28, "TREATMENT", "2013-02-07T15:16", 34], [606, "CDISCPILOT01", "LB", "01-701-1341", 32, "SPGRAV", "Specific Gravity", "URINALYSIS", "1.023", "", "1.01", "1.034", "1.023", 1, "", 1, 1, "NORMAL", "Y", 1.0, "SCREENING 1", -7, "SCREENING", "2012-12-22T14:56", -14], [607, "CDISCPILOT01", "LB", "01-701-1341", 85, "SPGRAV", "Specific Gravity", "URINALYSIS", "1.030", "", "1.01", "1.034", "1.03", 1, "", 1, 1, "NORMAL", "", 4.0, "WEEK 2", 14, "TREATMENT", "2013-01-18T12:00", 14], [608, "CDISCPILOT01", "LB", "01-701-1341", 120, "SPGRAV", "Specific Gravity", "URINALYSIS", "1.021", "", "1.01", "1.034", "1.021", 1, "", 1, 1, "NORMAL", "", 5.0, "WEEK 4", 28, "TREATMENT", "2013-02-07T15:16", 34], [609, "CDISCPILOT01", "LB", "01-701-1341", 33, "TSH", "Thyrotropin", "OTHER", "0.22", "mIU/L", "0.32", "5", "0.22", 0, "mU/L", 0, 5, "LOW", "Y", 1.0, "SCREENING 1", -7, "SCREENING", "2012-12-22T14:56", -14], [610, "CDISCPILOT01", "LB", "01-701-1341", 52, "TSH", "Thyrotropin", "OTHER", "0.51", "mIU/L", "0.32", "5", "0.51", 0, "mU/L", 0, 5, "NORMAL", "", 1.1, "UNSCHEDULED 1.1", null, "SCREENING", "2012-12-26T11:05", -10], [611, "CDISCPILOT01", "LB", "01-701-1341", 35, "UROBIL", "Urobilinogen", "URINALYSIS", "0", "", "", "", "0", 0, "", null, null, "NORMAL", "Y", 1.0, "SCREENING 1", -7, "SCREENING", "2012-12-22T14:56", -14], [612, "CDISCPILOT01", "LB", "01-701-1341", 87, "UROBIL", "Urobilinogen", "URINALYSIS", "0", "", "", "", "0", 0, "", null, null, "NORMAL", "", 4.0, "WEEK 2", 14, "TREATMENT", "2013-01-18T12:00", 14], [613, "CDISCPILOT01", "LB", "01-701-1341", 122, "UROBIL", "Urobilinogen", "URINALYSIS", "0", "", "", "", "0", 0, "", null, null, "NORMAL", "", 5.0, "WEEK 4", 28, "TREATMENT", "2013-02-07T15:16", 34], [614, "CDISCPILOT01", "LB", "01-701-1341", 36, "VITB12", "Vitamin B12", "OTHER", "597", "ng/L", "200", "900", "440.4666", 440, "pmol/L", 148, 664, "NORMAL", "Y", 1.0, "SCREENING 1", -7, "SCREENING", "2012-12-22T14:56", -14], [615, "CDISCPILOT01", "LB", "01-701-1345", 12, "COLOR", "Color", "URINALYSIS", "N", "", "", "", "N", null, "", null, null, "NORMAL", "Y", 1.0, "SCREENING 1", -7, "SCREENING", "2013-10-01T12:50", -7], [616, "CDISCPILOT01", "LB", "01-701-1345", 49, "COLOR", "Color", "URINALYSIS", "N", "", "", "", "N", null, "", null, null, "NORMAL", "", 4.0, "WEEK 2", 14, "TREATMENT", "2013-10-24T10:41", 17], [617, "CDISCPILOT01", "LB", "01-701-1345", 174, "COLOR", "Color", "URINALYSIS", "N", "", "", "", "N", null, "", null, null, "NORMAL", "", 9.0, "WEEK 12", 84, "TREATMENT", "2013-12-31T15:07", 85], [618, "CDISCPILOT01", "LB", "01-701-1345", 269, "COLOR", "Color", "URINALYSIS", "N", "", "", "", "N", null, "", null, null, "NORMAL", "", 12.0, "WEEK 24", 168, "TREATMENT", "2014-03-18T14:12", 162], [619, "CDISCPILOT01", "LB", "01-701-1345", 20, "KETONES", "Ketones", "URINALYSIS", "0", "", "", "", "0", 0, "", null, null, "NORMAL", "Y", 1.0, "SCREENING 1", -7, "SCREENING", "2013-10-01T12:50", -7], [620, "CDISCPILOT01", "LB", "01-701-1345", 57, "KETONES", "Ketones", "URINALYSIS", "0", "", "", "", "0", 0, "", null, null, "NORMAL", "", 4.0, "WEEK 2", 14, "TREATMENT", "2013-10-24T10:41", 17], [621, "CDISCPILOT01", "LB", "01-701-1345", 182, "KETONES", "Ketones", "URINALYSIS", "0", "", "", "", "0", 0, "", null, null, "NORMAL", "", 9.0, "WEEK 12", 84, "TREATMENT", "2013-12-31T15:07", 85], [622, "CDISCPILOT01", "LB", "01-701-1345", 277, "KETONES", "Ketones", "URINALYSIS", "0", "", "", "", "0", 0, "", null, null, "NORMAL", "", 12.0, "WEEK 24", 168, "TREATMENT", "2014-03-18T14:12", 162], [623, "CDISCPILOT01", "LB", "01-701-1345", 27, "PH", "pH", "URINALYSIS", "5.0", "", "5", "8", "5", 5, "", 5, 8, "NORMAL", "Y", 1.0, "SCREENING 1", -7, "SCREENING", "2013-10-01T12:50", -7], [624, "CDISCPILOT01", "LB", "01-701-1345", 64, "PH", "pH", "URINALYSIS", "5.0", "", "5", "8", "5", 5, "", 5, 8, "NORMAL", "", 4.0, "WEEK 2", 14, "TREATMENT", "2013-10-24T10:41", 17], [625, "CDISCPILOT01", "LB", "01-701-1345", 189, "PH", "pH", "URINALYSIS", "5.0", "", "5", "8", "5", 5, "", 5, 8, "NORMAL", "", 9.0, "WEEK 12", 84, "TREATMENT", "2013-12-31T15:07", 85], [626, "CDISCPILOT01", "LB", "01-701-1345", 284, "PH", "pH", "URINALYSIS", "5.0", "", "5", "8", "5", 5, "", 5, 8, "NORMAL", "", 12.0, "WEEK 24", 168, "TREATMENT", "2014-03-18T14:12", 162], [627, "CDISCPILOT01", "LB", "01-701-1345", 32, "SPGRAV", "Specific Gravity", "URINALYSIS", "1.013", "", "1.006", "1.03", "1.013", 1, "", 1, 1, "NORMAL", "Y", 1.0, "SCREENING 1", -7, "SCREENING", "2013-10-01T12:50", -7], [628, "CDISCPILOT01", "LB", "01-701-1345", 69, "SPGRAV", "Specific Gravity", "URINALYSIS", "1.015", "", "1.006", "1.03", "1.015", 1, "", 1, 1, "NORMAL", "", 4.0, "WEEK 2", 14, "TREATMENT", "2013-10-24T10:41", 17], [629, "CDISCPILOT01", "LB", "01-701-1345", 194, "SPGRAV", "Specific Gravity", "URINALYSIS", "1.007", "", "1.006", "1.03", "1.007", 1, "", 1, 1, "NORMAL", "", 9.0, "WEEK 12", 84, "TREATMENT", "2013-12-31T15:07", 85], [630, "CDISCPILOT01", "LB", "01-701-1345", 289, "SPGRAV", "Specific Gravity", "URINALYSIS", "1.007", "", "1.006", "1.03", "1.007", 1, "", 1, 1, "NORMAL", "", 12.0, "WEEK 24", 168, "TREATMENT", "2014-03-18T14:12", 162], [631, "CDISCPILOT01", "LB", "01-701-1345", 33, "TSH", "Thyrotropin", "OTHER", "0.94", "mIU/L", "0.32", "5", "0.94", 0, "mU/L", 0, 5, "NORMAL", "Y", 1.0, "SCREENING 1", -7, "SCREENING", "2013-10-01T12:50", -7], [632, "CDISCPILOT01", "LB", "01-701-1345", 35, "UROBIL", "Urobilinogen", "URINALYSIS", "0", "", "", "", "0", 0, "", null, null, "NORMAL", "Y", 1.0, "SCREENING 1", -7, "SCREENING", "2013-10-01T12:50", -7], [633, "CDISCPILOT01", "LB", "01-701-1345", 71, "UROBIL", "Urobilinogen", "URINALYSIS", "0", "", "", "", "0", 0, "", null, null, "NORMAL", "", 4.0, "WEEK 2", 14, "TREATMENT", "2013-10-24T10:41", 17], [634, "CDISCPILOT01", "LB", "01-701-1345", 196, "UROBIL", "Urobilinogen", "URINALYSIS", "0", "", "", "", "0", 0, "", null, null, "NORMAL", "", 9.0, "WEEK 12", 84, "TREATMENT", "2013-12-31T15:07", 85], [635, "CDISCPILOT01", "LB", "01-701-1345", 291, "UROBIL", "Urobilinogen", "URINALYSIS", "0", "", "", "", "0", 0, "", null, null, "NORMAL", "", 12.0, "WEEK 24", 168, "TREATMENT", "2014-03-18T14:12", 162], [636, "CDISCPILOT01", "LB", "01-701-1345", 36, "VITB12", "Vitamin B12", "OTHER", "302", "ng/L", "200", "900", "222.8156", 222, "pmol/L", 148, 664, "NORMAL", "Y", 1.0, "SCREENING 1", -7, "SCREENING", "2013-10-01T12:50", -7], [637, "CDISCPILOT01", "LB", "01-701-1360", 12, "COLOR", "Color", "URINALYSIS", "N", "", "", "", "N", null, "", null, null, "NORMAL", "Y", 1.0, "SCREENING 1", -7, "SCREENING", "2013-07-24T11:04", -7], [638, "CDISCPILOT01", "LB", "01-701-1360", 49, "COLOR", "Color", "URINALYSIS", "N", "", "", "", "N", null, "", null, null, "NORMAL", "", 4.0, "WEEK 2", 14, "TREATMENT", "2013-08-14T15:17", 15], [639, "CDISCPILOT01", "LB", "01-701-1360", 20, "KETONES", "Ketones", "URINALYSIS", "0", "", "", "", "0", 0, "", null, null, "NORMAL", "Y", 1.0, "SCREENING 1", -7, "SCREENING", "2013-07-24T11:04", -7], [640, "CDISCPILOT01", "LB", "01-701-1360", 57, "KETONES", "Ketones", "URINALYSIS", "0", "", "", "", "0", 0, "", null, null, "NORMAL", "", 4.0, "WEEK 2", 14, "TREATMENT", "2013-08-14T15:17", 15], [641, "CDISCPILOT01", "LB", "01-701-1360", 27, "PH", "pH", "URINALYSIS", "5.0", "", "5", "8", "5", 5, "", 5, 8, "NORMAL", "Y", 1.0, "SCREENING 1", -7, "SCREENING", "2013-07-24T11:04", -7], [642, "CDISCPILOT01", "LB", "01-701-1360", 64, "PH", "pH", "URINALYSIS", "5.0", "", "5", "8", "5", 5, "", 5, 8, "NORMAL", "", 4.0, "WEEK 2", 14, "TREATMENT", "2013-08-14T15:17", 15], [643, "CDISCPILOT01", "LB", "01-701-1360", 32, "SPGRAV", "Specific Gravity", "URINALYSIS", "1.014", "", "1.006", "1.03", "1.014", 1, "", 1, 1, "NORMAL", "Y", 1.0, "SCREENING 1", -7, "SCREENING", "2013-07-24T11:04", -7], [644, "CDISCPILOT01", "LB", "01-701-1360", 69, "SPGRAV", "Specific Gravity", "URINALYSIS", "1.022", "", "1.006", "1.03", "1.022", 1, "", 1, 1, "NORMAL", "", 4.0, "WEEK 2", 14, "TREATMENT", "2013-08-14T15:17", 15], [645, "CDISCPILOT01", "LB", "01-701-1360", 33, "TSH", "Thyrotropin", "OTHER", "1.09", "mIU/L", "0.32", "5", "1.09", 1, "mU/L", 0, 5, "NORMAL", "Y", 1.0, "SCREENING 1", -7, "SCREENING", "2013-07-24T11:04", -7], [646, "CDISCPILOT01", "LB", "01-701-1360", 35, "UROBIL", "Urobilinogen", "URINALYSIS", "0", "", "", "", "0", 0, "", null, null, "NORMAL", "Y", 1.0, "SCREENING 1", -7, "SCREENING", "2013-07-24T11:04", -7], [647, "CDISCPILOT01", "LB", "01-701-1360", 71, "UROBIL", "Urobilinogen", "URINALYSIS", "0", "", "", "", "0", 0, "", null, null, "NORMAL", "", 4.0, "WEEK 2", 14, "TREATMENT", "2013-08-14T15:17", 15], [648, "CDISCPILOT01", "LB", "01-701-1360", 36, "VITB12", "Vitamin B12", "OTHER", "249", "ng/L", "200", "900", "183.7122", 183, "pmol/L", 148, 664, "NORMAL", "Y", 1.0, "SCREENING 1", -7, "SCREENING", "2013-07-24T11:04", -7], [649, "CDISCPILOT01", "LB", "01-701-1363", 12, "COLOR", "Color", "URINALYSIS", "N", "", "", "", "N", null, "", null, null, "NORMAL", "Y", 1.0, "SCREENING 1", -7, "SCREENING", "2013-05-20T13:29", -10], [650, "CDISCPILOT01", "LB", "01-701-1363", 49, "COLOR", "Color", "URINALYSIS", "N", "", "", "", "N", null, "", null, null, "NORMAL", "", 4.0, "WEEK 2", 14, "TREATMENT", "2013-06-12T09:57", 14], [651, "CDISCPILOT01", "LB", "01-701-1363", 174, "COLOR", "Color", "URINALYSIS", "N", "", "", "", "N", null, "", null, null, "NORMAL", "", 9.0, "WEEK 12", 84, "TREATMENT", "2013-08-21T15:17", 84], [652, "CDISCPILOT01", "LB", "01-701-1363", 269, "COLOR", "Color", "URINALYSIS", "N", "", "", "", "N", null, "", null, null, "NORMAL", "", 12.0, "WEEK 24", 168, "TREATMENT", "2013-11-13T11:55", 168], [653, "CDISCPILOT01", "LB", "01-701-1363", 20, "KETONES", "Ketones", "URINALYSIS", "0", "", "", "", "0", 0, "", null, null, "NORMAL", "Y", 1.0, "SCREENING 1", -7, "SCREENING", "2013-05-20T13:29", -10], [654, "CDISCPILOT01", "LB", "01-701-1363", 57, "KETONES", "Ketones", "URINALYSIS", "0", "", "", "", "0", 0, "", null, null, "NORMAL", "", 4.0, "WEEK 2", 14, "TREATMENT", "2013-06-12T09:57", 14], [655, "CDISCPILOT01", "LB", "01-701-1363", 182, "KETONES", "Ketones", "URINALYSIS", "0", "", "", "", "0", 0, "", null, null, "NORMAL", "", 9.0, "WEEK 12", 84, "TREATMENT", "2013-08-21T15:17", 84], [656, "CDISCPILOT01", "LB", "01-701-1363", 277, "KETONES", "Ketones", "URINALYSIS", "0", "", "", "", "0", 0, "", null, null, "NORMAL", "", 12.0, "WEEK 24", 168, "TREATMENT", "2013-11-13T11:55", 168], [657, "CDISCPILOT01", "LB", "01-701-1363", 27, "PH", "pH", "URINALYSIS", "5.0", "", "5", "8", "5", 5, "", 5, 8, "NORMAL", "Y", 1.0, "SCREENING 1", -7, "SCREENING", "2013-05-20T13:29", -10], [658, "CDISCPILOT01", "LB", "01-701-1363", 64, "PH", "pH", "URINALYSIS", "5.0", "", "5", "8", "5", 5, "", 5, 8, "NORMAL", "", 4.0, "WEEK 2", 14, "TREATMENT", "2013-06-12T09:57", 14], [659, "CDISCPILOT01", "LB", "01-701-1363", 189, "PH", "pH", "URINALYSIS", "5.0", "", "5", "8", "5", 5, "", 5, 8, "NORMAL", "", 9.0, "WEEK 12", 84, "TREATMENT", "2013-08-21T15:17", 84], [660, "CDISCPILOT01", "LB", "01-701-1363", 284, "PH", "pH", "URINALYSIS", "6.0", "", "5", "8", "6", 6, "", 5, 8, "NORMAL", "", 12.0, "WEEK 24", 168, "TREATMENT", "2013-11-13T11:55", 168], [661, "CDISCPILOT01", "LB", "01-701-1363", 32, "SPGRAV", "Specific Gravity", "URINALYSIS", "1.025", "", "1.006", "1.03", "1.025", 1, "", 1, 1, "NORMAL", "Y", 1.0, "SCREENING 1", -7, "SCREENING", "2013-05-20T13:29", -10], [662, "CDISCPILOT01", "LB", "01-701-1363", 69, "SPGRAV", "Specific Gravity", "URINALYSIS", "1.023", "", "1.006", "1.03", "1.023", 1, "", 1, 1, "NORMAL", "", 4.0, "WEEK 2", 14, "TREATMENT", "2013-06-12T09:57", 14], [663, "CDISCPILOT01", "LB", "01-701-1363", 194, "SPGRAV", "Specific Gravity", "URINALYSIS", "1.022", "", "1.006", "1.03", "1.022", 1, "", 1, 1, "NORMAL", "", 9.0, "WEEK 12", 84, "TREATMENT", "2013-08-21T15:17", 84], [664, "CDISCPILOT01", "LB", "01-701-1363", 289, "SPGRAV", "Specific Gravity", "URINALYSIS", "1.022", "", "1.006", "1.03", "1.022", 1, "", 1, 1, "NORMAL", "", 12.0, "WEEK 24", 168, "TREATMENT", "2013-11-13T11:55", 168], [665, "CDISCPILOT01", "LB", "01-701-1363", 33, "TSH", "Thyrotropin", "OTHER", "1.36", "mIU/L", "0.32", "5", "1.36", 1, "mU/L", 0, 5, "NORMAL", "Y", 1.0, "SCREENING 1", -7, "SCREENING", "2013-05-20T13:29", -10], [666, "CDISCPILOT01", "LB", "01-701-1363", 35, "UROBIL", "Urobilinogen", "URINALYSIS", "0", "", "", "", "0", 0, "", null, null, "NORMAL", "Y", 1.0, "SCREENING 1", -7, "SCREENING", "2013-05-20T13:29", -10], [667, "CDISCPILOT01", "LB", "01-701-1363", 71, "UROBIL", "Urobilinogen", "URINALYSIS", "0", "", "", "", "0", 0, "", null, null, "NORMAL", "", 4.0, "WEEK 2", 14, "TREATMENT", "2013-06-12T09:57", 14], [668, "CDISCPILOT01", "LB", "01-701-1363", 196, "UROBIL", "Urobilinogen", "URINALYSIS", "0", "", "", "", "0", 0, "", null, null, "NORMAL", "", 9.0, "WEEK 12", 84, "TREATMENT", "2013-08-21T15:17", 84], [669, "CDISCPILOT01", "LB", "01-701-1363", 291, "UROBIL", "Urobilinogen", "URINALYSIS", "0", "", "", "", "0", 0, "", null, null, "NORMAL", "", 12.0, "WEEK 24", 168, "TREATMENT", "2013-11-13T11:55", 168], [670, "CDISCPILOT01", "LB", "01-701-1363", 36, "VITB12", "Vitamin B12", "OTHER", "713", "ng/L", "200", "900", "526.0514", 526, "pmol/L", 148, 664, "NORMAL", "Y", 1.0, "SCREENING 1", -7, "SCREENING", "2013-05-20T13:29", -10], [671, "CDISCPILOT01", "LB", "01-701-1383", 12, "COLOR", "Color", "URINALYSIS", "N", "", "", "", "N", null, "", null, null, "NORMAL", "Y", 1.0, "SCREENING 1", -7, "SCREENING", "2013-01-22T11:43", -13], [672, "CDISCPILOT01", "LB", "01-701-1383", 49, "COLOR", "Color", "URINALYSIS", "N", "", "", "", "N", null, "", null, null, "NORMAL", "", 4.0, "WEEK 2", 14, "TREATMENT", "2013-02-19T09:40", 16], [673, "CDISCPILOT01", "LB", "01-701-1383", 174, "COLOR", "Color", "URINALYSIS", "N", "", "", "", "N", null, "", null, null, "NORMAL", "", 9.0, "WEEK 12", 84, "TREATMENT", "2013-04-30T13:14", 86], [674, "CDISCPILOT01", "LB", "01-701-1383", 269, "COLOR", "Color", "URINALYSIS", "N", "", "", "", "N", null, "", null, null, "NORMAL", "", 12.0, "WEEK 24", 168, "TREATMENT", "2013-07-30T12:32", 177], [675, "CDISCPILOT01", "LB", "01-701-1383", 20, "KETONES", "Ketones", "URINALYSIS", "0", "", "", "", "0", 0, "", null, null, "NORMAL", "Y", 1.0, "SCREENING 1", -7, "SCREENING", "2013-01-22T11:43", -13], [676, "CDISCPILOT01", "LB", "01-701-1383", 57, "KETONES", "Ketones", "URINALYSIS", "0", "", "", "", "0", 0, "", null, null, "NORMAL", "", 4.0, "WEEK 2", 14, "TREATMENT", "2013-02-19T09:40", 16], [677, "CDISCPILOT01", "LB", "01-701-1383", 182, "KETONES", "Ketones", "URINALYSIS", "0", "", "", "", "0", 0, "", null, null, "NORMAL", "", 9.0, "WEEK 12", 84, "TREATMENT", "2013-04-30T13:14", 86], [678, "CDISCPILOT01", "LB", "01-701-1383", 277, "KETONES", "Ketones", "URINALYSIS", "0", "", "", "", "0", 0, "", null, null, "NORMAL", "", 12.0, "WEEK 24", 168, "TREATMENT", "2013-07-30T12:32", 177], [679, "CDISCPILOT01", "LB", "01-701-1383", 27, "PH", "pH", "URINALYSIS", "6.0", "", "5", "8", "6", 6, "", 5, 8, "NORMAL", "Y", 1.0, "SCREENING 1", -7, "SCREENING", "2013-01-22T11:43", -13], [680, "CDISCPILOT01", "LB", "01-701-1383", 64, "PH", "pH", "URINALYSIS", "6.0", "", "5", "8", "6", 6, "", 5, 8, "NORMAL", "", 4.0, "WEEK 2", 14, "TREATMENT", "2013-02-19T09:40", 16], [681, "CDISCPILOT01", "LB", "01-701-1383", 189, "PH", "pH", "URINALYSIS", "5.0", "", "5", "8", "5", 5, "", 5, 8, "NORMAL", "", 9.0, "WEEK 12", 84, "TREATMENT", "2013-04-30T13:14", 86], [682, "CDISCPILOT01", "LB", "01-701-1383", 284, "PH", "pH", "URINALYSIS", "7.0", "", "5", "8", "7", 7, "", 5, 8, "NORMAL", "", 12.0, "WEEK 24", 168, "TREATMENT", "2013-07-30T12:32", 177], [683, "CDISCPILOT01", "LB", "01-701-1383", 32, "SPGRAV", "Specific Gravity", "URINALYSIS", "1.011", "", "1.006", "1.03", "1.011", 1, "", 1, 1, "NORMAL", "Y", 1.0, "SCREENING 1", -7, "SCREENING", "2013-01-22T11:43", -13], [684, "CDISCPILOT01", "LB", "01-701-1383", 69, "SPGRAV", "Specific Gravity", "URINALYSIS", "1.016", "", "1.006", "1.03", "1.016", 1, "", 1, 1, "NORMAL", "", 4.0, "WEEK 2", 14, "TREATMENT", "2013-02-19T09:40", 16], [685, "CDISCPILOT01", "LB", "01-701-1383", 194, "SPGRAV", "Specific Gravity", "URINALYSIS", "1.022", "", "1.006", "1.03", "1.022", 1, "", 1, 1, "NORMAL", "", 9.0, "WEEK 12", 84, "TREATMENT", "2013-04-30T13:14", 86], [686, "CDISCPILOT01", "LB", "01-701-1383", 289, "SPGRAV", "Specific Gravity", "URINALYSIS", "1.017", "", "1.006", "1.03", "1.017", 1, "", 1, 1, "NORMAL", "", 12.0, "WEEK 24", 168, "TREATMENT", "2013-07-30T12:32", 177], [687, "CDISCPILOT01", "LB", "01-701-1383", 33, "TSH", "Thyrotropin", "OTHER", "3.66", "mIU/L", "0.32", "5", "3.66", 3, "mU/L", 0, 5, "NORMAL", "Y", 1.0, "SCREENING 1", -7, "SCREENING", "2013-01-22T11:43", -13], [688, "CDISCPILOT01", "LB", "01-701-1383", 35, "UROBIL", "Urobilinogen", "URINALYSIS", "0", "", "", "", "0", 0, "", null, null, "NORMAL", "Y", 1.0, "SCREENING 1", -7, "SCREENING", "2013-01-22T11:43", -13], [689, "CDISCPILOT01", "LB", "01-701-1383", 71, "UROBIL", "Urobilinogen", "URINALYSIS", "0", "", "", "", "0", 0, "", null, null, "NORMAL", "", 4.0, "WEEK 2", 14, "TREATMENT", "2013-02-19T09:40", 16], [690, "CDISCPILOT01", "LB", "01-701-1383", 196, "UROBIL", "Urobilinogen", "URINALYSIS", "0", "", "", "", "0", 0, "", null, null, "NORMAL", "", 9.0, "WEEK 12", 84, "TREATMENT", "2013-04-30T13:14", 86], [691, "CDISCPILOT01", "LB", "01-701-1383", 291, "UROBIL", "Urobilinogen", "URINALYSIS", "0", "", "", "", "0", 0, "", null, null, "NORMAL", "", 12.0, "WEEK 24", 168, "TREATMENT", "2013-07-30T12:32", 177], [692, "CDISCPILOT01", "LB", "01-701-1383", 36, "VITB12", "Vitamin B12", "OTHER", "555", "ng/L", "200", "900", "409.479", 409, "pmol/L", 148, 664, "NORMAL", "Y", 1.0, "SCREENING 1", -7, "SCREENING", "2013-01-22T11:43", -13], [693, "CDISCPILOT01", "LB", "01-701-1387", 12, "COLOR", "Color", "URINALYSIS", "N", "", "", "", "N", null, "", null, null, "NORMAL", "Y", 1.0, "SCREENING 1", -7, "SCREENING", "2014-02-23T13:20", -17], [694, "CDISCPILOT01", "LB", "01-701-1387", 49, "COLOR", "Color", "URINALYSIS", "N", "", "", "", "N", null, "", null, null, "NORMAL", "", 4.0, "WEEK 2", 14, "TREATMENT", "2014-03-25T10:40", 14], [695, "CDISCPILOT01", "LB", "01-701-1387", 20, "KETONES", "Ketones", "URINALYSIS", "0", "", "", "", "0", 0, "", null, null, "NORMAL", "Y", 1.0, "SCREENING 1", -7, "SCREENING", "2014-02-23T13:20", -17], [696, "CDISCPILOT01", "LB", "01-701-1387", 57, "KETONES", "Ketones", "URINALYSIS", "0", "", "", "", "0", 0, "", null, null, "NORMAL", "", 4.0, "WEEK 2", 14, "TREATMENT", "2014-03-25T10:40", 14], [697, "CDISCPILOT01", "LB", "01-701-1387", 27, "PH", "pH", "URINALYSIS", "5.0", "", "5", "8", "5", 5, "", 5, 8, "NORMAL", "Y", 1.0, "SCREENING 1", -7, "SCREENING", "2014-02-23T13:20", -17], [698, "CDISCPILOT01", "LB", "01-701-1387", 64, "PH", "pH", "URINALYSIS", "5.0", "", "5", "8", "5", 5, "", 5, 8, "NORMAL", "", 4.0, "WEEK 2", 14, "TREATMENT", "2014-03-25T10:40", 14], [699, "CDISCPILOT01", "LB", "01-701-1387", 32, "SPGRAV", "Specific Gravity", "URINALYSIS", "1.026", "", "1.006", "1.03", "1.026", 1, "", 1, 1, "NORMAL", "Y", 1.0, "SCREENING 1", -7, "SCREENING", "2014-02-23T13:20", -17], [700, "CDISCPILOT01", "LB", "01-701-1387", 69, "SPGRAV", "Specific Gravity", "URINALYSIS", "1.017", "", "1.006", "1.03", "1.017", 1, "", 1, 1, "NORMAL", "", 4.0, "WEEK 2", 14, "TREATMENT", "2014-03-25T10:40", 14], [701, "CDISCPILOT01", "LB", "01-701-1387", 33, "TSH", "Thyrotropin", "OTHER", "0.93", "mIU/L", "0.32", "5", "0.93", 0, "mU/L", 0, 5, "NORMAL", "Y", 1.0, "SCREENING 1", -7, "SCREENING", "2014-02-23T13:20", -17], [702, "CDISCPILOT01", "LB", "01-701-1387", 35, "UROBIL", "Urobilinogen", "URINALYSIS", "0", "", "", "", "0", 0, "", null, null, "NORMAL", "Y", 1.0, "SCREENING 1", -7, "SCREENING", "2014-02-23T13:20", -17], [703, "CDISCPILOT01", "LB", "01-701-1387", 71, "UROBIL", "Urobilinogen", "URINALYSIS", "0", "", "", "", "0", 0, "", null, null, "NORMAL", "", 4.0, "WEEK 2", 14, "TREATMENT", "2014-03-25T10:40", 14], [704, "CDISCPILOT01", "LB", "01-701-1387", 36, "VITB12", "Vitamin B12", "OTHER", "370", "ng/L", "200", "900", "272.986", 272, "pmol/L", 148, 664, "NORMAL", "Y", 1.0, "SCREENING 1", -7, "SCREENING", "2014-02-23T13:20", -17], [705, "CDISCPILOT01", "LB", "01-701-1392", 12, "COLOR", "Color", "URINALYSIS", "N", "", "", "", "N", null, "", null, null, "NORMAL", "Y", 1.0, "SCREENING 1", -7, "SCREENING", "2012-10-17T12:13", -11], [706, "CDISCPILOT01", "LB", "01-701-1392", 49, "COLOR", "Color", "URINALYSIS", "N", "", "", "", "N", null, "", null, null, "NORMAL", "", 4.0, "WEEK 2", 14, "TREATMENT", "2012-11-11T15:35", 15], [707, "CDISCPILOT01", "LB", "01-701-1392", 174, "COLOR", "Color", "URINALYSIS", "N", "", "", "", "N", null, "", null, null, "NORMAL", "", 9.0, "WEEK 12", 84, "TREATMENT", "2013-01-20T14:39", 85], [708, "CDISCPILOT01", "LB", "01-701-1392", 269, "COLOR", "Color", "URINALYSIS", "N", "", "", "", "N", null, "", null, null, "NORMAL", "", 12.0, "WEEK 24", 168, "TREATMENT", "2013-04-15T10:53", 170], [709, "CDISCPILOT01", "LB", "01-701-1392", 20, "KETONES", "Ketones", "URINALYSIS", "0", "", "", "", "0", 0, "", null, null, "NORMAL", "Y", 1.0, "SCREENING 1", -7, "SCREENING", "2012-10-17T12:13", -11], [710, "CDISCPILOT01", "LB", "01-701-1392", 57, "KETONES", "Ketones", "URINALYSIS", "0", "", "", "", "0", 0, "", null, null, "NORMAL", "", 4.0, "WEEK 2", 14, "TREATMENT", "2012-11-11T15:35", 15], [711, "CDISCPILOT01", "LB", "01-701-1392", 182, "KETONES", "Ketones", "URINALYSIS", "0", "", "", "", "0", 0, "", null, null, "NORMAL", "", 9.0, "WEEK 12", 84, "TREATMENT", "2013-01-20T14:39", 85], [712, "CDISCPILOT01", "LB", "01-701-1392", 277, "KETONES", "Ketones", "URINALYSIS", "0", "", "", "", "0", 0, "", null, null, "NORMAL", "", 12.0, "WEEK 24", 168, "TREATMENT", "2013-04-15T10:53", 170], [713, "CDISCPILOT01", "LB", "01-701-1392", 27, "PH", "pH", "URINALYSIS", "5.0", "", "5", "8", "5", 5, "", 5, 8, "NORMAL", "Y", 1.0, "SCREENING 1", -7, "SCREENING", "2012-10-17T12:13", -11], [714, "CDISCPILOT01", "LB", "01-701-1392", 64, "PH", "pH", "URINALYSIS", "5.0", "", "5", "8", "5", 5, "", 5, 8, "NORMAL", "", 4.0, "WEEK 2", 14, "TREATMENT", "2012-11-11T15:35", 15], [715, "CDISCPILOT01", "LB", "01-701-1392", 189, "PH", "pH", "URINALYSIS", "5.0", "", "5", "8", "5", 5, "", 5, 8, "NORMAL", "", 9.0, "WEEK 12", 84, "TREATMENT", "2013-01-20T14:39", 85], [716, "CDISCPILOT01", "LB", "01-701-1392", 284, "PH", "pH", "URINALYSIS", "6.0", "", "5", "8", "6", 6, "", 5, 8, "NORMAL", "", 12.0, "WEEK 24", 168, "TREATMENT", "2013-04-15T10:53", 170], [717, "CDISCPILOT01", "LB", "01-701-1392", 32, "SPGRAV", "Specific Gravity", "URINALYSIS", "1.019", "", "1.006", "1.03", "1.019", 1, "", 1, 1, "NORMAL", "Y", 1.0, "SCREENING 1", -7, "SCREENING", "2012-10-17T12:13", -11], [718, "CDISCPILOT01", "LB", "01-701-1392", 69, "SPGRAV", "Specific Gravity", "URINALYSIS", "1.020", "", "1.006", "1.03", "1.02", 1, "", 1, 1, "NORMAL", "", 4.0, "WEEK 2", 14, "TREATMENT", "2012-11-11T15:35", 15], [719, "CDISCPILOT01", "LB", "01-701-1392", 194, "SPGRAV", "Specific Gravity", "URINALYSIS", "1.023", "", "1.006", "1.03", "1.023", 1, "", 1, 1, "NORMAL", "", 9.0, "WEEK 12", 84, "TREATMENT", "2013-01-20T14:39", 85], [720, "CDISCPILOT01", "LB", "01-701-1392", 289, "SPGRAV", "Specific Gravity", "URINALYSIS", "1.021", "", "1.006", "1.03", "1.021", 1, "", 1, 1, "NORMAL", "", 12.0, "WEEK 24", 168, "TREATMENT", "2013-04-15T10:53", 170], [721, "CDISCPILOT01", "LB", "01-701-1392", 33, "TSH", "Thyrotropin", "OTHER", "1.34", "mIU/L", "0.32", "5", "1.34", 1, "mU/L", 0, 5, "NORMAL", "Y", 1.0, "SCREENING 1", -7, "SCREENING", "2012-10-17T12:13", -11], [722, "CDISCPILOT01", "LB", "01-701-1392", 35, "UROBIL", "Urobilinogen", "URINALYSIS", "0", "", "", "", "0", 0, "", null, null, "NORMAL", "Y", 1.0, "SCREENING 1", -7, "SCREENING", "2012-10-17T12:13", -11], [723, "CDISCPILOT01", "LB", "01-701-1392", 71, "UROBIL", "Urobilinogen", "URINALYSIS", "0", "", "", "", "0", 0, "", null, null, "NORMAL", "", 4.0, "WEEK 2", 14, "TREATMENT", "2012-11-11T15:35", 15], [724, "CDISCPILOT01", "LB", "01-701-1392", 196, "UROBIL", "Urobilinogen", "URINALYSIS", "0", "", "", "", "0", 0, "", null, null, "NORMAL", "", 9.0, "WEEK 12", 84, "TREATMENT", "2013-01-20T14:39", 85], [725, "CDISCPILOT01", "LB", "01-701-1392", 291, "UROBIL", "Urobilinogen", "URINALYSIS", "0", "", "", "", "0", 0, "", null, null, "NORMAL", "", 12.0, "WEEK 24", 168, "TREATMENT", "2013-04-15T10:53", 170], [726, "CDISCPILOT01", "LB", "01-701-1392", 36, "VITB12", "Vitamin B12", "OTHER", "662", "ng/L", "200", "900", "488.4236", 488, "pmol/L", 148, 664, "NORMAL", "Y", 1.0, "SCREENING 1", -7, "SCREENING", "2012-10-17T12:13", -11], [727, "CDISCPILOT01", "LB", "01-701-1415", 12, "COLOR", "Color", "URINALYSIS", "N", "", "", "", "N", null, "", null, null, "NORMAL", "Y", 1.0, "SCREENING 1", -7, "SCREENING", "2013-09-15T14:05", -8], [728, "CDISCPILOT01", "LB", "01-701-1415", 38, "COLOR", "Color", "URINALYSIS", "N", "", "", "", "N", null, "", null, null, "NORMAL", "", 1.1, "UNSCHEDULED 1.1", null, "SCREENING", "2013-09-21T12:35", -2], [729, "CDISCPILOT01", "LB", "01-701-1415", 54, "COLOR", "Color", "URINALYSIS", "N", "", "", "", "N", null, "", null, null, "NORMAL", "", 4.0, "WEEK 2", 14, "TREATMENT", "2013-10-07T12:25", 15], [730, "CDISCPILOT01", "LB", "01-701-1415", 181, "COLOR", "Color", "URINALYSIS", "N", "", "", "", "N", null, "", null, null, "NORMAL", "", 9.0, "WEEK 12", 84, "TREATMENT", "2013-12-21T15:25", 90], [731, "CDISCPILOT01", "LB", "01-701-1415", 275, "COLOR", "Color", "URINALYSIS", "N", "", "", "", "N", null, "", null, null, "NORMAL", "", 12.0, "WEEK 24", 168, "TREATMENT", "2014-03-10T12:30", 169], [732, "CDISCPILOT01", "LB", "01-701-1415", 20, "KETONES", "Ketones", "URINALYSIS", "1", "", "", "", "1", 1, "", null, null, "ABNORMAL", "Y", 1.0, "SCREENING 1", -7, "SCREENING", "2013-09-15T14:05", -8], [733, "CDISCPILOT01", "LB", "01-701-1415", 39, "KETONES", "Ketones", "URINALYSIS", "0", "", "", "", "0", 0, "", null, null, "NORMAL", "", 1.1, "UNSCHEDULED 1.1", null, "SCREENING", "2013-09-21T12:35", -2], [734, "CDISCPILOT01", "LB", "01-701-1415", 62, "KETONES", "Ketones", "URINALYSIS", "0", "", "", "", "0", 0, "", null, null, "NORMAL", "", 4.0, "WEEK 2", 14, "TREATMENT", "2013-10-07T12:25", 15], [735, "CDISCPILOT01", "LB", "01-701-1415", 189, "KETONES", "Ketones", "URINALYSIS", "0", "", "", "", "0", 0, "", null, null, "NORMAL", "", 9.0, "WEEK 12", 84, "TREATMENT", "2013-12-21T15:25", 90], [736, "CDISCPILOT01", "LB", "01-701-1415", 283, "KETONES", "Ketones", "URINALYSIS", "0", "", "", "", "0", 0, "", null, null, "NORMAL", "", 12.0, "WEEK 24", 168, "TREATMENT", "2014-03-10T12:30", 169], [737, "CDISCPILOT01", "LB", "01-701-1415", 27, "PH", "pH", "URINALYSIS", "5.0", "", "5", "8", "5", 5, "", 5, 8, "NORMAL", "Y", 1.0, "SCREENING 1", -7, "SCREENING", "2013-09-15T14:05", -8], [738, "CDISCPILOT01", "LB", "01-701-1415", 40, "PH", "pH", "URINALYSIS", "6.0", "", "5", "8", "6", 6, "", 5, 8, "NORMAL", "", 1.1, "UNSCHEDULED 1.1", null, "SCREENING", "2013-09-21T12:35", -2], [739, "CDISCPILOT01", "LB", "01-701-1415", 69, "PH", "pH", "URINALYSIS", "5.0", "", "5", "8", "5", 5, "", 5, 8, "NORMAL", "", 4.0, "WEEK 2", 14, "TREATMENT", "2013-10-07T12:25", 15], [740, "CDISCPILOT01", "LB", "01-701-1415", 196, "PH", "pH", "URINALYSIS", "5.0", "", "5", "8", "5", 5, "", 5, 8, "NORMAL", "", 9.0, "WEEK 12", 84, "TREATMENT", "2013-12-21T15:25", 90], [741, "CDISCPILOT01", "LB", "01-701-1415", 290, "PH", "pH", "URINALYSIS", "5.0", "", "5", "8", "5", 5, "", 5, 8, "NORMAL", "", 12.0, "WEEK 24", 168, "TREATMENT", "2014-03-10T12:30", 169], [742, "CDISCPILOT01", "LB", "01-701-1415", 32, "SPGRAV", "Specific Gravity", "URINALYSIS", "1.018", "", "1.006", "1.03", "1.018", 1, "", 1, 1, "NORMAL", "Y", 1.0, "SCREENING 1", -7, "SCREENING", "2013-09-15T14:05", -8], [743, "CDISCPILOT01", "LB", "01-701-1415", 41, "SPGRAV", "Specific Gravity", "URINALYSIS", "1.023", "", "1.006", "1.03", "1.023", 1, "", 1, 1, "NORMAL", "", 1.1, "UNSCHEDULED 1.1", null, "SCREENING", "2013-09-21T12:35", -2], [744, "CDISCPILOT01", "LB", "01-701-1415", 74, "SPGRAV", "Specific Gravity", "URINALYSIS", "1.022", "", "1.006", "1.03", "1.022", 1, "", 1, 1, "NORMAL", "", 4.0, "WEEK 2", 14, "TREATMENT", "2013-10-07T12:25", 15], [745, "CDISCPILOT01", "LB", "01-701-1415", 200, "SPGRAV", "Specific Gravity", "URINALYSIS", "1.022", "", "1.006", "1.03", "1.022", 1, "", 1, 1, "NORMAL", "", 9.0, "WEEK 12", 84, "TREATMENT", "2013-12-21T15:25", 90], [746, "CDISCPILOT01", "LB", "01-701-1415", 295, "SPGRAV", "Specific Gravity", "URINALYSIS", "1.020", "", "1.006", "1.03", "1.02", 1, "", 1, 1, "NORMAL", "", 12.0, "WEEK 24", 168, "TREATMENT", "2014-03-10T12:30", 169], [747, "CDISCPILOT01", "LB", "01-701-1415", 33, "TSH", "Thyrotropin", "OTHER", "1.01", "mIU/L", "0.32", "5", "1.01", 1, "mU/L", 0, 5, "NORMAL", "Y", 1.0, "SCREENING 1", -7, "SCREENING", "2013-09-15T14:05", -8], [748, "CDISCPILOT01", "LB", "01-701-1415", 35, "UROBIL", "Urobilinogen", "URINALYSIS", "0", "", "", "", "0", 0, "", null, null, "NORMAL", "Y", 1.0, "SCREENING 1", -7, "SCREENING", "2013-09-15T14:05", -8], [749, "CDISCPILOT01", "LB", "01-701-1415", 42, "UROBIL", "Urobilinogen", "URINALYSIS", "0", "", "", "", "0", 0, "", null, null, "NORMAL", "", 1.1, "UNSCHEDULED 1.1", null, "SCREENING", "2013-09-21T12:35", -2], [750, "CDISCPILOT01", "LB", "01-701-1415", 76, "UROBIL", "Urobilinogen", "URINALYSIS", "0", "", "", "", "0", 0, "", null, null, "NORMAL", "", 4.0, "WEEK 2", 14, "TREATMENT", "2013-10-07T12:25", 15], [751, "CDISCPILOT01", "LB", "01-701-1415", 202, "UROBIL", "Urobilinogen", "URINALYSIS", "0", "", "", "", "0", 0, "", null, null, "NORMAL", "", 9.0, "WEEK 12", 84, "TREATMENT", "2013-12-21T15:25", 90], [752, "CDISCPILOT01", "LB", "01-701-1415", 297, "UROBIL", "Urobilinogen", "URINALYSIS", "0", "", "", "", "0", 0, "", null, null, "NORMAL", "", 12.0, "WEEK 24", 168, "TREATMENT", "2014-03-10T12:30", 169], [753, "CDISCPILOT01", "LB", "01-701-1415", 36, "VITB12", "Vitamin B12", "OTHER", "387", "ng/L", "200", "900", "285.5286", 285, "pmol/L", 148, 664, "NORMAL", "Y", 1.0, "SCREENING 1", -7, "SCREENING", "2013-09-15T14:05", -8], [754, "CDISCPILOT01", "LB", "01-701-1429", 12, "COLOR", "Color", "URINALYSIS", "N", "", "", "", "N", null, "", null, null, "NORMAL", "Y", 1.0, "SCREENING 1", -7, "SCREENING", "2013-02-21T16:20", -26], [755, "CDISCPILOT01", "LB", "01-701-1429", 49, "COLOR", "Color", "URINALYSIS", "N", "", "", "", "N", null, "", null, null, "NORMAL", "", 4.0, "WEEK 2", 14, "TREATMENT", "2013-04-02T12:41", 15], [756, "CDISCPILOT01", "LB", "01-701-1429", 114, "COLOR", "Color", "URINALYSIS", "N", "", "", "", "N", null, "", null, null, "NORMAL", "", 7.0, "WEEK 6", 42, "TREATMENT", "2013-04-30T12:22", 43], [757, "CDISCPILOT01", "LB", "01-701-1429", 20, "KETONES", "Ketones", "URINALYSIS", "0", "", "", "", "0", 0, "", null, null, "NORMAL", "Y", 1.0, "SCREENING 1", -7, "SCREENING", "2013-02-21T16:20", -26], [758, "CDISCPILOT01", "LB", "01-701-1429", 57, "KETONES", "Ketones", "URINALYSIS", "0", "", "", "", "0", 0, "", null, null, "NORMAL", "", 4.0, "WEEK 2", 14, "TREATMENT", "2013-04-02T12:41", 15], [759, "CDISCPILOT01", "LB", "01-701-1429", 122, "KETONES", "Ketones", "URINALYSIS", "0", "", "", "", "0", 0, "", null, null, "NORMAL", "", 7.0, "WEEK 6", 42, "TREATMENT", "2013-04-30T12:22", 43], [760, "CDISCPILOT01", "LB", "01-701-1429", 27, "PH", "pH", "URINALYSIS", "6.0", "", "5", "8", "6", 6, "", 5, 8, "NORMAL", "Y", 1.0, "SCREENING 1", -7, "SCREENING", "2013-02-21T16:20", -26], [761, "CDISCPILOT01", "LB", "01-701-1429", 64, "PH", "pH", "URINALYSIS", "5.0", "", "5", "8", "5", 5, "", 5, 8, "NORMAL", "", 4.0, "WEEK 2", 14, "TREATMENT", "2013-04-02T12:41", 15], [762, "CDISCPILOT01", "LB", "01-701-1429", 129, "PH", "pH", "URINALYSIS", "6.0", "", "5", "8", "6", 6, "", 5, 8, "NORMAL", "", 7.0, "WEEK 6", 42, "TREATMENT", "2013-04-30T12:22", 43], [763, "CDISCPILOT01", "LB", "01-701-1429", 32, "SPGRAV", "Specific Gravity", "URINALYSIS", "1.016", "", "1.006", "1.03", "1.016", 1, "", 1, 1, "NORMAL", "Y", 1.0, "SCREENING 1", -7, "SCREENING", "2013-02-21T16:20", -26], [764, "CDISCPILOT01", "LB", "01-701-1429", 69, "SPGRAV", "Specific Gravity", "URINALYSIS", "1.013", "", "1.006", "1.03", "1.013", 1, "", 1, 1, "NORMAL", "", 4.0, "WEEK 2", 14, "TREATMENT", "2013-04-02T12:41", 15], [765, "CDISCPILOT01", "LB", "01-701-1429", 134, "SPGRAV", "Specific Gravity", "URINALYSIS", "1.025", "", "1.006", "1.03", "1.025", 1, "", 1, 1, "NORMAL", "", 7.0, "WEEK 6", 42, "TREATMENT", "2013-04-30T12:22", 43], [766, "CDISCPILOT01", "LB", "01-701-1429", 33, "TSH", "Thyrotropin", "OTHER", "1.19", "mIU/L", "0.32", "5", "1.19", 1, "mU/L", 0, 5, "NORMAL", "Y", 1.0, "SCREENING 1", -7, "SCREENING", "2013-02-21T16:20", -26], [767, "CDISCPILOT01", "LB", "01-701-1429", 35, "UROBIL", "Urobilinogen", "URINALYSIS", "0", "", "", "", "0", 0, "", null, null, "NORMAL", "Y", 1.0, "SCREENING 1", -7, "SCREENING", "2013-02-21T16:20", -26], [768, "CDISCPILOT01", "LB", "01-701-1429", 71, "UROBIL", "Urobilinogen", "URINALYSIS", "0", "", "", "", "0", 0, "", null, null, "NORMAL", "", 4.0, "WEEK 2", 14, "TREATMENT", "2013-04-02T12:41", 15], [769, "CDISCPILOT01", "LB", "01-701-1429", 136, "UROBIL", "Urobilinogen", "URINALYSIS", "0", "", "", "", "0", 0, "", null, null, "NORMAL", "", 7.0, "WEEK 6", 42, "TREATMENT", "2013-04-30T12:22", 43], [770, "CDISCPILOT01", "LB", "01-701-1429", 36, "VITB12", "Vitamin B12", "OTHER", "329", "ng/L", "200", "900", "242.7362", 242, "pmol/L", 148, 664, "NORMAL", "Y", 1.0, "SCREENING 1", -7, "SCREENING", "2013-02-21T16:20", -26], [771, "CDISCPILOT01", "LB", "01-701-1440", 12, "COLOR", "Color", "URINALYSIS", "N", "", "", "", "N", null, "", null, null, "NORMAL", "Y", 1.0, "SCREENING 1", -7, "SCREENING", "2013-07-24T12:09", -15], [772, "CDISCPILOT01", "LB", "01-701-1440", 49, "COLOR", "Color", "URINALYSIS", "N", "", "", "", "N", null, "", null, null, "NORMAL", "", 4.0, "WEEK 2", 14, "TREATMENT", "2013-08-23T09:40", 16], [773, "CDISCPILOT01", "LB", "01-701-1440", 174, "COLOR", "Color", "URINALYSIS", "N", "", "", "", "N", null, "", null, null, "NORMAL", "", 9.0, "WEEK 12", 84, "TREATMENT", "2013-10-31T11:50", 85], [774, "CDISCPILOT01", "LB", "01-701-1440", 269, "COLOR", "Color", "URINALYSIS", "N", "", "", "", "N", null, "", null, null, "NORMAL", "", 12.0, "WEEK 24", 168, "TREATMENT", "2014-01-22T12:32", 168], [775, "CDISCPILOT01", "LB", "01-701-1440", 20, "KETONES", "Ketones", "URINALYSIS", "0", "", "", "", "0", 0, "", null, null, "NORMAL", "Y", 1.0, "SCREENING 1", -7, "SCREENING", "2013-07-24T12:09", -15], [776, "CDISCPILOT01", "LB", "01-701-1440", 57, "KETONES", "Ketones", "URINALYSIS", "0", "", "", "", "0", 0, "", null, null, "NORMAL", "", 4.0, "WEEK 2", 14, "TREATMENT", "2013-08-23T09:40", 16], [777, "CDISCPILOT01", "LB", "01-701-1440", 182, "KETONES", "Ketones", "URINALYSIS", "0", "", "", "", "0", 0, "", null, null, "NORMAL", "", 9.0, "WEEK 12", 84, "TREATMENT", "2013-10-31T11:50", 85], [778, "CDISCPILOT01", "LB", "01-701-1440", 277, "KETONES", "Ketones", "URINALYSIS", "0", "", "", "", "0", 0, "", null, null, "NORMAL", "", 12.0, "WEEK 24", 168, "TREATMENT", "2014-01-22T12:32", 168], [779, "CDISCPILOT01", "LB", "01-701-1440", 27, "PH", "pH", "URINALYSIS", "5.0", "", "5", "8", "5", 5, "", 5, 8, "NORMAL", "Y", 1.0, "SCREENING 1", -7, "SCREENING", "2013-07-24T12:09", -15], [780, "CDISCPILOT01", "LB", "01-701-1440", 64, "PH", "pH", "URINALYSIS", "5.0", "", "5", "8", "5", 5, "", 5, 8, "NORMAL", "", 4.0, "WEEK 2", 14, "TREATMENT", "2013-08-23T09:40", 16], [781, "CDISCPILOT01", "LB", "01-701-1440", 189, "PH", "pH", "URINALYSIS", "6.0", "", "5", "8", "6", 6, "", 5, 8, "NORMAL", "", 9.0, "WEEK 12", 84, "TREATMENT", "2013-10-31T11:50", 85], [782, "CDISCPILOT01", "LB", "01-701-1440", 284, "PH", "pH", "URINALYSIS", "6.0", "", "5", "8", "6", 6, "", 5, 8, "NORMAL", "", 12.0, "WEEK 24", 168, "TREATMENT", "2014-01-22T12:32", 168], [783, "CDISCPILOT01", "LB", "01-701-1440", 32, "SPGRAV", "Specific Gravity", "URINALYSIS", "1.015", "", "1.006", "1.03", "1.015", 1, "", 1, 1, "NORMAL", "Y", 1.0, "SCREENING 1", -7, "SCREENING", "2013-07-24T12:09", -15], [784, "CDISCPILOT01", "LB", "01-701-1440", 69, "SPGRAV", "Specific Gravity", "URINALYSIS", "1.011", "", "1.006", "1.03", "1.011", 1, "", 1, 1, "NORMAL", "", 4.0, "WEEK 2", 14, "TREATMENT", "2013-08-23T09:40", 16], [785, "CDISCPILOT01", "LB", "01-701-1440", 194, "SPGRAV", "Specific Gravity", "URINALYSIS", "1.016", "", "1.006", "1.03", "1.016", 1, "", 1, 1, "NORMAL", "", 9.0, "WEEK 12", 84, "TREATMENT", "2013-10-31T11:50", 85], [786, "CDISCPILOT01", "LB", "01-701-1440", 289, "SPGRAV", "Specific Gravity", "URINALYSIS", "1.018", "", "1.006", "1.03", "1.018", 1, "", 1, 1, "NORMAL", "", 12.0, "WEEK 24", 168, "TREATMENT", "2014-01-22T12:32", 168], [787, "CDISCPILOT01", "LB", "01-701-1440", 33, "TSH", "Thyrotropin", "OTHER", "0.45", "mIU/L", "0.32", "5", "0.45", 0, "mU/L", 0, 5, "NORMAL", "Y", 1.0, "SCREENING 1", -7, "SCREENING", "2013-07-24T12:09", -15], [788, "CDISCPILOT01", "LB", "01-701-1440", 35, "UROBIL", "Urobilinogen", "URINALYSIS", "0", "", "", "", "0", 0, "", null, null, "NORMAL", "Y", 1.0, "SCREENING 1", -7, "SCREENING", "2013-07-24T12:09", -15], [789, "CDISCPILOT01", "LB", "01-701-1440", 71, "UROBIL", "Urobilinogen", "URINALYSIS", "0", "", "", "", "0", 0, "", null, null, "NORMAL", "", 4.0, "WEEK 2", 14, "TREATMENT", "2013-08-23T09:40", 16], [790, "CDISCPILOT01", "LB", "01-701-1440", 196, "UROBIL", "Urobilinogen", "URINALYSIS", "0", "", "", "", "0", 0, "", null, null, "NORMAL", "", 9.0, "WEEK 12", 84, "TREATMENT", "2013-10-31T11:50", 85], [791, "CDISCPILOT01", "LB", "01-701-1440", 291, "UROBIL", "Urobilinogen", "URINALYSIS", "0", "", "", "", "0", 0, "", null, null, "NORMAL", "", 12.0, "WEEK 24", 168, "TREATMENT", "2014-01-22T12:32", 168], [792, "CDISCPILOT01", "LB", "01-701-1440", 36, "VITB12", "Vitamin B12", "OTHER", "269", "ng/L", "200", "900", "198.4682", 198, "pmol/L", 148, 664, "NORMAL", "Y", 1.0, "SCREENING 1", -7, "SCREENING", "2013-07-24T12:09", -15], [793, "CDISCPILOT01", "LB", "01-701-1442", 12, "COLOR", "Color", "URINALYSIS", "N", "", "", "", "N", null, "", null, null, "NORMAL", "Y", 1.0, "SCREENING 1", -7, "SCREENING", "2013-10-17T11:49", -9], [794, "CDISCPILOT01", "LB", "01-701-1442", 49, "COLOR", "Color", "URINALYSIS", "N", "", "", "", "N", null, "", null, null, "NORMAL", "", 4.0, "WEEK 2", 14, "TREATMENT", "2013-11-09T09:50", 15], [795, "CDISCPILOT01", "LB", "01-701-1442", 174, "COLOR", "Color", "URINALYSIS", "N", "", "", "", "N", null, "", null, null, "NORMAL", "", 9.0, "WEEK 12", 84, "TREATMENT", "2014-01-18T08:37", 85], [796, "CDISCPILOT01", "LB", "01-701-1442", 269, "COLOR", "Color", "URINALYSIS", "N", "", "", "", "N", null, "", null, null, "NORMAL", "", 12.0, "WEEK 24", 168, "TREATMENT", "2014-04-17T15:14", 174], [797, "CDISCPILOT01", "LB", "01-701-1442", 20, "KETONES", "Ketones", "URINALYSIS", "0", "", "", "", "0", 0, "", null, null, "NORMAL", "Y", 1.0, "SCREENING 1", -7, "SCREENING", "2013-10-17T11:49", -9], [798, "CDISCPILOT01", "LB", "01-701-1442", 57, "KETONES", "Ketones", "URINALYSIS", "0", "", "", "", "0", 0, "", null, null, "NORMAL", "", 4.0, "WEEK 2", 14, "TREATMENT", "2013-11-09T09:50", 15], [799, "CDISCPILOT01", "LB", "01-701-1442", 182, "KETONES", "Ketones", "URINALYSIS", "0", "", "", "", "0", 0, "", null, null, "NORMAL", "", 9.0, "WEEK 12", 84, "TREATMENT", "2014-01-18T08:37", 85], [800, "CDISCPILOT01", "LB", "01-701-1442", 277, "KETONES", "Ketones", "URINALYSIS", "0", "", "", "", "0", 0, "", null, null, "NORMAL", "", 12.0, "WEEK 24", 168, "TREATMENT", "2014-04-17T15:14", 174], [801, "CDISCPILOT01", "LB", "01-701-1442", 27, "PH", "pH", "URINALYSIS", "5.0", "", "5", "8", "5", 5, "", 5, 8, "NORMAL", "Y", 1.0, "SCREENING 1", -7, "SCREENING", "2013-10-17T11:49", -9], [802, "CDISCPILOT01", "LB", "01-701-1442", 64, "PH", "pH", "URINALYSIS", "5.0", "", "5", "8", "5", 5, "", 5, 8, "NORMAL", "", 4.0, "WEEK 2", 14, "TREATMENT", "2013-11-09T09:50", 15], [803, "CDISCPILOT01", "LB", "01-701-1442", 189, "PH", "pH", "URINALYSIS", "5.0", "", "5", "8", "5", 5, "", 5, 8, "NORMAL", "", 9.0, "WEEK 12", 84, "TREATMENT", "2014-01-18T08:37", 85], [804, "CDISCPILOT01", "LB", "01-701-1442", 284, "PH", "pH", "URINALYSIS", "6.0", "", "5", "8", "6", 6, "", 5, 8, "NORMAL", "", 12.0, "WEEK 24", 168, "TREATMENT", "2014-04-17T15:14", 174], [805, "CDISCPILOT01", "LB", "01-701-1442", 32, "SPGRAV", "Specific Gravity", "URINALYSIS", "1.015", "", "1.01", "1.034", "1.015", 1, "", 1, 1, "NORMAL", "Y", 1.0, "SCREENING 1", -7, "SCREENING", "2013-10-17T11:49", -9], [806, "CDISCPILOT01", "LB", "01-701-1442", 69, "SPGRAV", "Specific Gravity", "URINALYSIS", "1.016", "", "1.01", "1.034", "1.016", 1, "", 1, 1, "NORMAL", "", 4.0, "WEEK 2", 14, "TREATMENT", "2013-11-09T09:50", 15], [807, "CDISCPILOT01", "LB", "01-701-1442", 194, "SPGRAV", "Specific Gravity", "URINALYSIS", "1.016", "", "1.01", "1.034", "1.016", 1, "", 1, 1, "NORMAL", "", 9.0, "WEEK 12", 84, "TREATMENT", "2014-01-18T08:37", 85], [808, "CDISCPILOT01", "LB", "01-701-1442", 289, "SPGRAV", "Specific Gravity", "URINALYSIS", "1.015", "", "1.01", "1.034", "1.015", 1, "", 1, 1, "NORMAL", "", 12.0, "WEEK 24", 168, "TREATMENT", "2014-04-17T15:14", 174], [809, "CDISCPILOT01", "LB", "01-701-1442", 33, "TSH", "Thyrotropin", "OTHER", "3.28", "mIU/L", "0.32", "5", "3.28", 3, "mU/L", 0, 5, "NORMAL", "Y", 1.0, "SCREENING 1", -7, "SCREENING", "2013-10-17T11:49", -9], [810, "CDISCPILOT01", "LB", "01-701-1442", 35, "UROBIL", "Urobilinogen", "URINALYSIS", "0", "", "", "", "0", 0, "", null, null, "NORMAL", "Y", 1.0, "SCREENING 1", -7, "SCREENING", "2013-10-17T11:49", -9], [811, "CDISCPILOT01", "LB", "01-701-1442", 71, "UROBIL", "Urobilinogen", "URINALYSIS", "0", "", "", "", "0", 0, "", null, null, "NORMAL", "", 4.0, "WEEK 2", 14, "TREATMENT", "2013-11-09T09:50", 15], [812, "CDISCPILOT01", "LB", "01-701-1442", 196, "UROBIL", "Urobilinogen", "URINALYSIS", "0", "", "", "", "0", 0, "", null, null, "NORMAL", "", 9.0, "WEEK 12", 84, "TREATMENT", "2014-01-18T08:37", 85], [813, "CDISCPILOT01", "LB", "01-701-1442", 291, "UROBIL", "Urobilinogen", "URINALYSIS", "0", "", "", "", "0", 0, "", null, null, "NORMAL", "", 12.0, "WEEK 24", 168, "TREATMENT", "2014-04-17T15:14", 174], [814, "CDISCPILOT01", "LB", "01-701-1442", 36, "VITB12", "Vitamin B12", "OTHER", "722", "ng/L", "200", "900", "532.6916", 532, "pmol/L", 148, 664, "NORMAL", "Y", 1.0, "SCREENING 1", -7, "SCREENING", "2013-10-17T11:49", -9], [815, "CDISCPILOT01", "LB", "01-701-1444", 12, "COLOR", "Color", "URINALYSIS", "N", "", "", "", "N", null, "", null, null, "NORMAL", "Y", 1.0, "SCREENING 1", -7, "SCREENING", "2012-12-31T11:05", -5], [816, "CDISCPILOT01", "LB", "01-701-1444", 49, "COLOR", "Color", "URINALYSIS", "N", "", "", "", "N", null, "", null, null, "NORMAL", "", 4.0, "WEEK 2", 14, "TREATMENT", "2013-01-18T14:19", 14], [817, "CDISCPILOT01", "LB", "01-701-1444", 114, "COLOR", "Color", "URINALYSIS", "N", "", "", "", "N", null, "", null, null, "NORMAL", "", 7.0, "WEEK 6", 42, "TREATMENT", "2013-02-13T15:53", 40], [818, "CDISCPILOT01", "LB", "01-701-1444", 20, "KETONES", "Ketones", "URINALYSIS", "0", "", "", "", "0", 0, "", null, null, "NORMAL", "Y", 1.0, "SCREENING 1", -7, "SCREENING", "2012-12-31T11:05", -5], [819, "CDISCPILOT01", "LB", "01-701-1444", 57, "KETONES", "Ketones", "URINALYSIS", "0", "", "", "", "0", 0, "", null, null, "NORMAL", "", 4.0, "WEEK 2", 14, "TREATMENT", "2013-01-18T14:19", 14], [820, "CDISCPILOT01", "LB", "01-701-1444", 122, "KETONES", "Ketones", "URINALYSIS", "0", "", "", "", "0", 0, "", null, null, "NORMAL", "", 7.0, "WEEK 6", 42, "TREATMENT", "2013-02-13T15:53", 40], [821, "CDISCPILOT01", "LB", "01-701-1444", 27, "PH", "pH", "URINALYSIS", "5.0", "", "5", "8", "5", 5, "", 5, 8, "NORMAL", "Y", 1.0, "SCREENING 1", -7, "SCREENING", "2012-12-31T11:05", -5], [822, "CDISCPILOT01", "LB", "01-701-1444", 64, "PH", "pH", "URINALYSIS", "5.0", "", "5", "8", "5", 5, "", 5, 8, "NORMAL", "", 4.0, "WEEK 2", 14, "TREATMENT", "2013-01-18T14:19", 14], [823, "CDISCPILOT01", "LB", "01-701-1444", 129, "PH", "pH", "URINALYSIS", "5.0", "", "5", "8", "5", 5, "", 5, 8, "NORMAL", "", 7.0, "WEEK 6", 42, "TREATMENT", "2013-02-13T15:53", 40], [824, "CDISCPILOT01", "LB", "01-701-1444", 32, "SPGRAV", "Specific Gravity", "URINALYSIS", "1.015", "", "1.006", "1.03", "1.015", 1, "", 1, 1, "NORMAL", "Y", 1.0, "SCREENING 1", -7, "SCREENING", "2012-12-31T11:05", -5], [825, "CDISCPILOT01", "LB", "01-701-1444", 69, "SPGRAV", "Specific Gravity", "URINALYSIS", "1.013", "", "1.006", "1.03", "1.013", 1, "", 1, 1, "NORMAL", "", 4.0, "WEEK 2", 14, "TREATMENT", "2013-01-18T14:19", 14], [826, "CDISCPILOT01", "LB", "01-701-1444", 134, "SPGRAV", "Specific Gravity", "URINALYSIS", "1.028", "", "1.006", "1.03", "1.028", 1, "", 1, 1, "NORMAL", "", 7.0, "WEEK 6", 42, "TREATMENT", "2013-02-13T15:53", 40], [827, "CDISCPILOT01", "LB", "01-701-1444", 33, "TSH", "Thyrotropin", "OTHER", "1.63", "mIU/L", "0.32", "5", "1.63", 1, "mU/L", 0, 5, "NORMAL", "Y", 1.0, "SCREENING 1", -7, "SCREENING", "2012-12-31T11:05", -5], [828, "CDISCPILOT01", "LB", "01-701-1444", 35, "UROBIL", "Urobilinogen", "URINALYSIS", "0", "", "", "", "0", 0, "", null, null, "NORMAL", "Y", 1.0, "SCREENING 1", -7, "SCREENING", "2012-12-31T11:05", -5], [829, "CDISCPILOT01", "LB", "01-701-1444", 71, "UROBIL", "Urobilinogen", "URINALYSIS", "0", "", "", "", "0", 0, "", null, null, "NORMAL", "", 4.0, "WEEK 2", 14, "TREATMENT", "2013-01-18T14:19", 14], [830, "CDISCPILOT01", "LB", "01-701-1444", 136, "UROBIL", "Urobilinogen", "URINALYSIS", "0", "", "", "", "0", 0, "", null, null, "NORMAL", "", 7.0, "WEEK 6", 42, "TREATMENT", "2013-02-13T15:53", 40], [831, "CDISCPILOT01", "LB", "01-701-1444", 36, "VITB12", "Vitamin B12", "OTHER", "294", "ng/L", "200", "900", "216.9132", 216, "pmol/L", 148, 664, "NORMAL", "Y", 1.0, "SCREENING 1", -7, "SCREENING", "2012-12-31T11:05", -5], [832, "CDISCPILOT01", "LB", "01-702-1082", 12, "COLOR", "Color", "URINALYSIS", "N", "", "", "", "N", null, "", null, null, "NORMAL", "Y", 1.0, "SCREENING 1", -7, "SCREENING", "2013-07-03T14:00", -23], [833, "CDISCPILOT01", "LB", "01-702-1082", 48, "COLOR", "Color", "URINALYSIS", "N", "", "", "", "N", null, "", null, null, "NORMAL", "", 1.1, "UNSCHEDULED 1.1", null, "SCREENING", "2013-07-24T14:00", -2], [834, "CDISCPILOT01", "LB", "01-702-1082", 85, "COLOR", "Color", "URINALYSIS", "N", "", "", "", "N", null, "", null, null, "NORMAL", "", 4.0, "WEEK 2", 14, "TREATMENT", "2013-08-08T14:00", 14], [835, "CDISCPILOT01", "LB", "01-702-1082", 210, "COLOR", "Color", "URINALYSIS", "N", "", "", "", "N", null, "", null, null, "NORMAL", "", 9.0, "WEEK 12", 84, "TREATMENT", "2013-11-17T12:20", 115], [836, "CDISCPILOT01", "LB", "01-702-1082", 20, "KETONES", "Ketones", "URINALYSIS", "0", "", "", "", "0", 0, "", null, null, "NORMAL", "Y", 1.0, "SCREENING 1", -7, "SCREENING", "2013-07-03T14:00", -23], [837, "CDISCPILOT01", "LB", "01-702-1082", 53, "KETONES", "Ketones", "URINALYSIS", "0", "", "", "", "0", 0, "", null, null, "NORMAL", "", 1.1, "UNSCHEDULED 1.1", null, "SCREENING", "2013-07-24T14:00", -2], [838, "CDISCPILOT01", "LB", "01-702-1082", 93, "KETONES", "Ketones", "URINALYSIS", "0", "", "", "", "0", 0, "", null, null, "NORMAL", "", 4.0, "WEEK 2", 14, "TREATMENT", "2013-08-08T14:00", 14], [839, "CDISCPILOT01", "LB", "01-702-1082", 218, "KETONES", "Ketones", "URINALYSIS", "1", "", "", "", "1", 1, "", null, null, "ABNORMAL", "", 9.0, "WEEK 12", 84, "TREATMENT", "2013-11-17T12:20", 115], [840, "CDISCPILOT01", "LB", "01-702-1082", 27, "PH", "pH", "URINALYSIS", "5.0", "", "5", "8", "5", 5, "", 5, 8, "NORMAL", "Y", 1.0, "SCREENING 1", -7, "SCREENING", "2013-07-03T14:00", -23], [841, "CDISCPILOT01", "LB", "01-702-1082", 55, "PH", "pH", "URINALYSIS", "5.0", "", "5", "8", "5", 5, "", 5, 8, "NORMAL", "", 1.1, "UNSCHEDULED 1.1", null, "SCREENING", "2013-07-24T14:00", -2], [842, "CDISCPILOT01", "LB", "01-702-1082", 100, "PH", "pH", "URINALYSIS", "6.0", "", "5", "8", "6", 6, "", 5, 8, "NORMAL", "", 4.0, "WEEK 2", 14, "TREATMENT", "2013-08-08T14:00", 14], [843, "CDISCPILOT01", "LB", "01-702-1082", 225, "PH", "pH", "URINALYSIS", "5.0", "", "5", "8", "5", 5, "", 5, 8, "NORMAL", "", 9.0, "WEEK 12", 84, "TREATMENT", "2013-11-17T12:20", 115], [844, "CDISCPILOT01", "LB", "01-702-1082", 32, "SPGRAV", "Specific Gravity", "URINALYSIS", "1.026", "", "1.006", "1.03", "1.026", 1, "", 1, 1, "NORMAL", "Y", 1.0, "SCREENING 1", -7, "SCREENING", "2013-07-03T14:00", -23], [845, "CDISCPILOT01", "LB", "01-702-1082", 58, "SPGRAV", "Specific Gravity", "URINALYSIS", "1.022", "", "1.006", "1.03", "1.022", 1, "", 1, 1, "NORMAL", "", 1.1, "UNSCHEDULED 1.1", null, "SCREENING", "2013-07-24T14:00", -2], [846, "CDISCPILOT01", "LB", "01-702-1082", 105, "SPGRAV", "Specific Gravity", "URINALYSIS", "1.022", "", "1.006", "1.03", "1.022", 1, "", 1, 1, "NORMAL", "", 4.0, "WEEK 2", 14, "TREATMENT", "2013-08-08T14:00", 14], [847, "CDISCPILOT01", "LB", "01-702-1082", 230, "SPGRAV", "Specific Gravity", "URINALYSIS", "1.020", "", "1.006", "1.03", "1.02", 1, "", 1, 1, "NORMAL", "", 9.0, "WEEK 12", 84, "TREATMENT", "2013-11-17T12:20", 115], [848, "CDISCPILOT01", "LB", "01-702-1082", 33, "TSH", "Thyrotropin", "OTHER", "2.37", "mIU/L", "0.32", "5", "2.37", 2, "mU/L", 0, 5, "NORMAL", "Y", 1.0, "SCREENING 1", -7, "SCREENING", "2013-07-03T14:00", -23], [849, "CDISCPILOT01", "LB", "01-702-1082", 59, "TSH", "Thyrotropin", "OTHER", "3.27", "mIU/L", "0.32", "5", "3.27", 3, "mU/L", 0, 5, "NORMAL", "", 1.1, "UNSCHEDULED 1.1", null, "SCREENING", "2013-07-24T14:00", -2], [850, "CDISCPILOT01", "LB", "01-702-1082", 35, "UROBIL", "Urobilinogen", "URINALYSIS", "0", "", "", "", "0", 0, "", null, null, "NORMAL", "Y", 1.0, "SCREENING 1", -7, "SCREENING", "2013-07-03T14:00", -23], [851, "CDISCPILOT01", "LB", "01-702-1082", 61, "UROBIL", "Urobilinogen", "URINALYSIS", "0", "", "", "", "0", 0, "", null, null, "NORMAL", "", 1.1, "UNSCHEDULED 1.1", null, "SCREENING", "2013-07-24T14:00", -2], [852, "CDISCPILOT01", "LB", "01-702-1082", 107, "UROBIL", "Urobilinogen", "URINALYSIS", "0", "", "", "", "0", 0, "", null, null, "NORMAL", "", 4.0, "WEEK 2", 14, "TREATMENT", "2013-08-08T14:00", 14], [853, "CDISCPILOT01", "LB", "01-702-1082", 232, "UROBIL", "Urobilinogen", "URINALYSIS", "0", "", "", "", "0", 0, "", null, null, "NORMAL", "", 9.0, "WEEK 12", 84, "TREATMENT", "2013-11-17T12:20", 115], [854, "CDISCPILOT01", "LB", "01-702-1082", 36, "VITB12", "Vitamin B12", "OTHER", "946", "ng/L", "200", "900", "697.9588", 697, "pmol/L", 148, 664, "HIGH", "Y", 1.0, "SCREENING 1", -7, "SCREENING", "2013-07-03T14:00", -23], [855, "CDISCPILOT01", "LB", "01-703-1042", 12, "COLOR", "Color", "URINALYSIS", "N", "", "", "", "N", null, "", null, null, "NORMAL", "Y", 1.0, "SCREENING 1", -7, "SCREENING", "2012-12-27T12:45", -65], [856, "CDISCPILOT01", "LB", "01-703-1042", 49, "COLOR", "Color", "URINALYSIS", "N", "", "", "", "N", null, "", null, null, "NORMAL", "", 1.1, "UNSCHEDULED 1.1", null, "SCREENING", "2013-02-21T13:30", -9], [857, "CDISCPILOT01", "LB", "01-703-1042", 86, "COLOR", "Color", "URINALYSIS", "N", "", "", "", "N", null, "", null, null, "NORMAL", "", 4.0, "WEEK 2", 14, "TREATMENT", "2013-03-14T12:00", 13], [858, "CDISCPILOT01", "LB", "01-703-1042", 212, "COLOR", "Color", "URINALYSIS", "N", "", "", "", "N", null, "", null, null, "NORMAL", "", 9.0, "WEEK 12", 84, "TREATMENT", "2013-05-25T10:30", 85], [859, "CDISCPILOT01", "LB", "01-703-1042", 307, "COLOR", "Color", "URINALYSIS", "N", "", "", "", "N", null, "", null, null, "NORMAL", "", 12.0, "WEEK 24", 168, "TREATMENT", "2013-08-09T13:45", 161], [860, "CDISCPILOT01", "LB", "01-703-1042", 20, "KETONES", "Ketones", "URINALYSIS", "0", "", "", "", "0", 0, "", null, null, "NORMAL", "Y", 1.0, "SCREENING 1", -7, "SCREENING", "2012-12-27T12:45", -65], [861, "CDISCPILOT01", "LB", "01-703-1042", 57, "KETONES", "Ketones", "URINALYSIS", "0", "", "", "", "0", 0, "", null, null, "NORMAL", "", 1.1, "UNSCHEDULED 1.1", null, "SCREENING", "2013-02-21T13:30", -9], [862, "CDISCPILOT01", "LB", "01-703-1042", 94, "KETONES", "Ketones", "URINALYSIS", "0", "", "", "", "0", 0, "", null, null, "NORMAL", "", 4.0, "WEEK 2", 14, "TREATMENT", "2013-03-14T12:00", 13], [863, "CDISCPILOT01", "LB", "01-703-1042", 220, "KETONES", "Ketones", "URINALYSIS", "0", "", "", "", "0", 0, "", null, null, "NORMAL", "", 9.0, "WEEK 12", 84, "TREATMENT", "2013-05-25T10:30", 85], [864, "CDISCPILOT01", "LB", "01-703-1042", 315, "KETONES", "Ketones", "URINALYSIS", "0", "", "", "", "0", 0, "", null, null, "NORMAL", "", 12.0, "WEEK 24", 168, "TREATMENT", "2013-08-09T13:45", 161], [865, "CDISCPILOT01", "LB", "01-703-1042", 27, "PH", "pH", "URINALYSIS", "5.0", "", "5", "8", "5", 5, "", 5, 8, "NORMAL", "Y", 1.0, "SCREENING 1", -7, "SCREENING", "2012-12-27T12:45", -65], [866, "CDISCPILOT01", "LB", "01-703-1042", 64, "PH", "pH", "URINALYSIS", "5.0", "", "5", "8", "5", 5, "", 5, 8, "NORMAL", "", 1.1, "UNSCHEDULED 1.1", null, "SCREENING", "2013-02-21T13:30", -9], [867, "CDISCPILOT01", "LB", "01-703-1042", 101, "PH", "pH", "URINALYSIS", "7.0", "", "5", "8", "7", 7, "", 5, 8, "NORMAL", "", 4.0, "WEEK 2", 14, "TREATMENT", "2013-03-14T12:00", 13], [868, "CDISCPILOT01", "LB", "01-703-1042", 227, "PH", "pH", "URINALYSIS", "5.0", "", "5", "8", "5", 5, "", 5, 8, "NORMAL", "", 9.0, "WEEK 12", 84, "TREATMENT", "2013-05-25T10:30", 85], [869, "CDISCPILOT01", "LB", "01-703-1042", 322, "PH", "pH", "URINALYSIS", "5.0", "", "5", "8", "5", 5, "", 5, 8, "NORMAL", "", 12.0, "WEEK 24", 168, "TREATMENT", "2013-08-09T13:45", 161], [870, "CDISCPILOT01", "LB", "01-703-1042", 32, "SPGRAV", "Specific Gravity", "URINALYSIS", "1.028", "", "1.006", "1.03", "1.028", 1, "", 1, 1, "NORMAL", "Y", 1.0, "SCREENING 1", -7, "SCREENING", "2012-12-27T12:45", -65], [871, "CDISCPILOT01", "LB", "01-703-1042", 69, "SPGRAV", "Specific Gravity", "URINALYSIS", "1.023", "", "1.006", "1.03", "1.023", 1, "", 1, 1, "NORMAL", "", 1.1, "UNSCHEDULED 1.1", null, "SCREENING", "2013-02-21T13:30", -9], [872, "CDISCPILOT01", "LB", "01-703-1042", 106, "SPGRAV", "Specific Gravity", "URINALYSIS", "1.025", "", "1.006", "1.03", "1.025", 1, "", 1, 1, "NORMAL", "", 4.0, "WEEK 2", 14, "TREATMENT", "2013-03-14T12:00", 13], [873, "CDISCPILOT01", "LB", "01-703-1042", 232, "SPGRAV", "Specific Gravity", "URINALYSIS", "1.022", "", "1.006", "1.03", "1.022", 1, "", 1, 1, "NORMAL", "", 9.0, "WEEK 12", 84, "TREATMENT", "2013-05-25T10:30", 85], [874, "CDISCPILOT01", "LB", "01-703-1042", 327, "SPGRAV", "Specific Gravity", "URINALYSIS", "1.029", "", "1.006", "1.03", "1.029", 1, "", 1, 1, "NORMAL", "", 12.0, "WEEK 24", 168, "TREATMENT", "2013-08-09T13:45", 161], [875, "CDISCPILOT01", "LB", "01-703-1042", 33, "TSH", "Thyrotropin", "OTHER", "0.81", "mIU/L", "0.32", "5", "0.81", 0, "mU/L", 0, 5, "NORMAL", "Y", 1.0, "SCREENING 1", -7, "SCREENING", "2012-12-27T12:45", -65], [876, "CDISCPILOT01", "LB", "01-703-1042", 70, "TSH", "Thyrotropin", "OTHER", "0.68", "mIU/L", "0.32", "5", "0.68", 0, "mU/L", 0, 5, "NORMAL", "", 1.1, "UNSCHEDULED 1.1", null, "SCREENING", "2013-02-21T13:30", -9], [877, "CDISCPILOT01", "LB", "01-703-1042", 35, "UROBIL", "Urobilinogen", "URINALYSIS", "0", "", "", "", "0", 0, "", null, null, "NORMAL", "Y", 1.0, "SCREENING 1", -7, "SCREENING", "2012-12-27T12:45", -65], [878, "CDISCPILOT01", "LB", "01-703-1042", 72, "UROBIL", "Urobilinogen", "URINALYSIS", "0", "", "", "", "0", 0, "", null, null, "NORMAL", "", 1.1, "UNSCHEDULED 1.1", null, "SCREENING", "2013-02-21T13:30", -9], [879, "CDISCPILOT01", "LB", "01-703-1042", 108, "UROBIL", "Urobilinogen", "URINALYSIS", "0", "", "", "", "0", 0, "", null, null, "NORMAL", "", 4.0, "WEEK 2", 14, "TREATMENT", "2013-03-14T12:00", 13], [880, "CDISCPILOT01", "LB", "01-703-1042", 234, "UROBIL", "Urobilinogen", "URINALYSIS", "0", "", "", "", "0", 0, "", null, null, "NORMAL", "", 9.0, "WEEK 12", 84, "TREATMENT", "2013-05-25T10:30", 85], [881, "CDISCPILOT01", "LB", "01-703-1042", 329, "UROBIL", "Urobilinogen", "URINALYSIS", "0", "", "", "", "0", 0, "", null, null, "NORMAL", "", 12.0, "WEEK 24", 168, "TREATMENT", "2013-08-09T13:45", 161], [882, "CDISCPILOT01", "LB", "01-703-1042", 36, "VITB12", "Vitamin B12", "OTHER", "266", "ng/L", "200", "900", "196.2548", 196, "pmol/L", 148, 664, "NORMAL", "Y", 1.0, "SCREENING 1", -7, "SCREENING", "2012-12-27T12:45", -65], [883, "CDISCPILOT01", "LB", "01-703-1042", 73, "VITB12", "Vitamin B12", "OTHER", "208", "ng/L", "200", "900", "153.4624", 153, "pmol/L", 148, 664, "NORMAL", "", 1.1, "UNSCHEDULED 1.1", null, "SCREENING", "2013-02-21T13:30", -9], [884, "CDISCPILOT01", "LB", "01-703-1076", 12, "COLOR", "Color", "URINALYSIS", "N", "", "", "", "N", null, "", null, null, "NORMAL", "Y", 1.0, "SCREENING 1", -7, "SCREENING", "2013-10-16T11:30", -9], [885, "CDISCPILOT01", "LB", "01-703-1076", 49, "COLOR", "Color", "URINALYSIS", "N", "", "", "", "N", null, "", null, null, "NORMAL", "", 4.0, "WEEK 2", 14, "TREATMENT", "2013-11-06T10:00", 13], [886, "CDISCPILOT01", "LB", "01-703-1076", 174, "COLOR", "Color", "URINALYSIS", "N", "", "", "", "N", null, "", null, null, "NORMAL", "", 9.0, "WEEK 12", 84, "TREATMENT", "2013-12-24T13:05", 61], [887, "CDISCPILOT01", "LB", "01-703-1076", 20, "KETONES", "Ketones", "URINALYSIS", "0", "", "", "", "0", 0, "", null, null, "NORMAL", "Y", 1.0, "SCREENING 1", -7, "SCREENING", "2013-10-16T11:30", -9], [888, "CDISCPILOT01", "LB", "01-703-1076", 57, "KETONES", "Ketones", "URINALYSIS", "0", "", "", "", "0", 0, "", null, null, "NORMAL", "", 4.0, "WEEK 2", 14, "TREATMENT", "2013-11-06T10:00", 13], [889, "CDISCPILOT01", "LB", "01-703-1076", 182, "KETONES", "Ketones", "URINALYSIS", "0", "", "", "", "0", 0, "", null, null, "NORMAL", "", 9.0, "WEEK 12", 84, "TREATMENT", "2013-12-24T13:05", 61], [890, "CDISCPILOT01", "LB", "01-703-1076", 27, "PH", "pH", "URINALYSIS", "5.0", "", "5", "8", "5", 5, "", 5, 8, "NORMAL", "Y", 1.0, "SCREENING 1", -7, "SCREENING", "2013-10-16T11:30", -9], [891, "CDISCPILOT01", "LB", "01-703-1076", 64, "PH", "pH", "URINALYSIS", "6.0", "", "5", "8", "6", 6, "", 5, 8, "NORMAL", "", 4.0, "WEEK 2", 14, "TREATMENT", "2013-11-06T10:00", 13], [892, "CDISCPILOT01", "LB", "01-703-1076", 189, "PH", "pH", "URINALYSIS", "5.0", "", "5", "8", "5", 5, "", 5, 8, "NORMAL", "", 9.0, "WEEK 12", 84, "TREATMENT", "2013-12-24T13:05", 61], [893, "CDISCPILOT01", "LB", "01-703-1076", 32, "SPGRAV", "Specific Gravity", "URINALYSIS", "1.015", "", "1.006", "1.03", "1.015", 1, "", 1, 1, "NORMAL", "Y", 1.0, "SCREENING 1", -7, "SCREENING", "2013-10-16T11:30", -9], [894, "CDISCPILOT01", "LB", "01-703-1076", 69, "SPGRAV", "Specific Gravity", "URINALYSIS", "1.010", "", "1.006", "1.03", "1.01", 1, "", 1, 1, "NORMAL", "", 4.0, "WEEK 2", 14, "TREATMENT", "2013-11-06T10:00", 13], [895, "CDISCPILOT01", "LB", "01-703-1076", 194, "SPGRAV", "Specific Gravity", "URINALYSIS", "1.019", "", "1.006", "1.03", "1.019", 1, "", 1, 1, "NORMAL", "", 9.0, "WEEK 12", 84, "TREATMENT", "2013-12-24T13:05", 61], [896, "CDISCPILOT01", "LB", "01-703-1076", 33, "TSH", "Thyrotropin", "OTHER", "3.34", "mIU/L", "0.32", "5", "3.34", 3, "mU/L", 0, 5, "NORMAL", "Y", 1.0, "SCREENING 1", -7, "SCREENING", "2013-10-16T11:30", -9], [897, "CDISCPILOT01", "LB", "01-703-1076", 35, "UROBIL", "Urobilinogen", "URINALYSIS", "0", "", "", "", "0", 0, "", null, null, "NORMAL", "Y", 1.0, "SCREENING 1", -7, "SCREENING", "2013-10-16T11:30", -9], [898, "CDISCPILOT01", "LB", "01-703-1076", 71, "UROBIL", "Urobilinogen", "URINALYSIS", "0", "", "", "", "0", 0, "", null, null, "NORMAL", "", 4.0, "WEEK 2", 14, "TREATMENT", "2013-11-06T10:00", 13], [899, "CDISCPILOT01", "LB", "01-703-1076", 196, "UROBIL", "Urobilinogen", "URINALYSIS", "0", "", "", "", "0", 0, "", null, null, "NORMAL", "", 9.0, "WEEK 12", 84, "TREATMENT", "2013-12-24T13:05", 61], [900, "CDISCPILOT01", "LB", "01-703-1076", 36, "VITB12", "Vitamin B12", "OTHER", "585", "ng/L", "200", "900", "431.613", 431, "pmol/L", 148, 664, "NORMAL", "Y", 1.0, "SCREENING 1", -7, "SCREENING", "2013-10-16T11:30", -9], [901, "CDISCPILOT01", "LB", "01-703-1086", 11, "COLOR", "Color", "URINALYSIS", "N", "", "", "", "N", null, "", null, null, "NORMAL", "Y", 1.0, "SCREENING 1", -7, "SCREENING", "2012-08-19T14:50", -14], [902, "CDISCPILOT01", "LB", "01-703-1086", 49, "COLOR", "Color", "URINALYSIS", "N", "", "", "", "N", null, "", null, null, "NORMAL", "", 4.0, "WEEK 2", 14, "TREATMENT", "2012-09-16T11:10", 15], [903, "CDISCPILOT01", "LB", "01-703-1086", 174, "COLOR", "Color", "URINALYSIS", "N", "", "", "", "N", null, "", null, null, "NORMAL", "", 9.0, "WEEK 12", 84, "TREATMENT", "2012-11-27T09:30", 87], [904, "CDISCPILOT01", "LB", "01-703-1086", 209, "COLOR", "Color", "URINALYSIS", "N", "", "", "", "N", null, "", null, null, "NORMAL", "", 10.0, "WEEK 16", 112, "TREATMENT", "2012-12-24T09:30", 114], [905, "CDISCPILOT01", "LB", "01-703-1086", 16, "KETONES", "Ketones", "URINALYSIS", "0", "", "", "", "0", 0, "", null, null, "NORMAL", "Y", 1.0, "SCREENING 1", -7, "SCREENING", "2012-08-19T14:50", -14], [906, "CDISCPILOT01", "LB", "01-703-1086", 57, "KETONES", "Ketones", "URINALYSIS", "0", "", "", "", "0", 0, "", null, null, "NORMAL", "", 4.0, "WEEK 2", 14, "TREATMENT", "2012-09-16T11:10", 15], [907, "CDISCPILOT01", "LB", "01-703-1086", 182, "KETONES", "Ketones", "URINALYSIS", "0", "", "", "", "0", 0, "", null, null, "NORMAL", "", 9.0, "WEEK 12", 84, "TREATMENT", "2012-11-27T09:30", 87], [908, "CDISCPILOT01", "LB", "01-703-1086", 217, "KETONES", "Ketones", "URINALYSIS", "0", "", "", "", "0", 0, "", null, null, "NORMAL", "", 10.0, "WEEK 16", 112, "TREATMENT", "2012-12-24T09:30", 114], [909, "CDISCPILOT01", "LB", "01-703-1086", 18, "PH", "pH", "URINALYSIS", "6.0", "", "5", "8", "6", 6, "", 5, 8, "NORMAL", "Y", 1.0, "SCREENING 1", -7, "SCREENING", "2012-08-19T14:50", -14], [910, "CDISCPILOT01", "LB", "01-703-1086", 64, "PH", "pH", "URINALYSIS", "7.0", "", "5", "8", "7", 7, "", 5, 8, "NORMAL", "", 4.0, "WEEK 2", 14, "TREATMENT", "2012-09-16T11:10", 15], [911, "CDISCPILOT01", "LB", "01-703-1086", 189, "PH", "pH", "URINALYSIS", "6.0", "", "5", "8", "6", 6, "", 5, 8, "NORMAL", "", 9.0, "WEEK 12", 84, "TREATMENT", "2012-11-27T09:30", 87], [912, "CDISCPILOT01", "LB", "01-703-1086", 224, "PH", "pH", "URINALYSIS", "7.0", "", "5", "8", "7", 7, "", 5, 8, "NORMAL", "", 10.0, "WEEK 16", 112, "TREATMENT", "2012-12-24T09:30", 114], [913, "CDISCPILOT01", "LB", "01-703-1086", 21, "SPGRAV", "Specific Gravity", "URINALYSIS", "1.011", "", "1.006", "1.03", "1.011", 1, "", 1, 1, "NORMAL", "Y", 1.0, "SCREENING 1", -7, "SCREENING", "2012-08-19T14:50", -14], [914, "CDISCPILOT01", "LB", "01-703-1086", 69, "SPGRAV", "Specific Gravity", "URINALYSIS", "1.023", "", "1.006", "1.03", "1.023", 1, "", 1, 1, "NORMAL", "", 4.0, "WEEK 2", 14, "TREATMENT", "2012-09-16T11:10", 15], [915, "CDISCPILOT01", "LB", "01-703-1086", 194, "SPGRAV", "Specific Gravity", "URINALYSIS", "1.013", "", "1.006", "1.03", "1.013", 1, "", 1, 1, "NORMAL", "", 9.0, "WEEK 12", 84, "TREATMENT", "2012-11-27T09:30", 87], [916, "CDISCPILOT01", "LB", "01-703-1086", 229, "SPGRAV", "Specific Gravity", "URINALYSIS", "1.012", "", "1.006", "1.03", "1.012", 1, "", 1, 1, "NORMAL", "", 10.0, "WEEK 16", 112, "TREATMENT", "2012-12-24T09:30", 114], [917, "CDISCPILOT01", "LB", "01-703-1086", 22, "TSH", "Thyrotropin", "OTHER", "1.09", "mIU/L", "0.32", "5", "1.09", 1, "mU/L", 0, 5, "NORMAL", "Y", 1.0, "SCREENING 1", -7, "SCREENING", "2012-08-19T14:50", -14], [918, "CDISCPILOT01", "LB", "01-703-1086", 24, "UROBIL", "Urobilinogen", "URINALYSIS", "0", "", "", "", "0", 0, "", null, null, "NORMAL", "Y", 1.0, "SCREENING 1", -7, "SCREENING", "2012-08-19T14:50", -14], [919, "CDISCPILOT01", "LB", "01-703-1086", 71, "UROBIL", "Urobilinogen", "URINALYSIS", "0", "", "", "", "0", 0, "", null, null, "NORMAL", "", 4.0, "WEEK 2", 14, "TREATMENT", "2012-09-16T11:10", 15], [920, "CDISCPILOT01", "LB", "01-703-1086", 196, "UROBIL", "Urobilinogen", "URINALYSIS", "0", "", "", "", "0", 0, "", null, null, "NORMAL", "", 9.0, "WEEK 12", 84, "TREATMENT", "2012-11-27T09:30", 87], [921, "CDISCPILOT01", "LB", "01-703-1086", 231, "UROBIL", "Urobilinogen", "URINALYSIS", "0", "", "", "", "0", 0, "", null, null, "NORMAL", "", 10.0, "WEEK 16", 112, "TREATMENT", "2012-12-24T09:30", 114], [922, "CDISCPILOT01", "LB", "01-703-1086", 25, "VITB12", "Vitamin B12", "OTHER", "498", "ng/L", "200", "900", "367.4244", 367, "pmol/L", 148, 664, "NORMAL", "Y", 1.0, "SCREENING 1", -7, "SCREENING", "2012-08-19T14:50", -14], [923, "CDISCPILOT01", "LB", "01-703-1096", 12, "COLOR", "Color", "URINALYSIS", "N", "", "", "", "N", null, "", null, null, "NORMAL", "Y", 1.0, "SCREENING 1", -7, "SCREENING", "2012-12-05T11:30", -51], [924, "CDISCPILOT01", "LB", "01-703-1096", 61, "COLOR", "Color", "URINALYSIS", "N", "", "", "", "N", null, "", null, null, "NORMAL", "", 1.3000000000000003, "UNSCHEDULED 1.3", null, "SCREENING", "2013-01-23T18:00", -2], [925, "CDISCPILOT01", "LB", "01-703-1096", 20, "KETONES", "Ketones", "URINALYSIS", "0", "", "", "", "0", 0, "", null, null, "NORMAL", "Y", 1.0, "SCREENING 1", -7, "SCREENING", "2012-12-05T11:30", -51], [926, "CDISCPILOT01", "LB", "01-703-1096", 69, "KETONES", "Ketones", "URINALYSIS", "0", "", "", "", "0", 0, "", null, null, "NORMAL", "", 1.3000000000000003, "UNSCHEDULED 1.3", null, "SCREENING", "2013-01-23T18:00", -2], [927, "CDISCPILOT01", "LB", "01-703-1096", 27, "PH", "pH", "URINALYSIS", "5.0", "", "5", "8", "5", 5, "", 5, 8, "NORMAL", "Y", 1.0, "SCREENING 1", -7, "SCREENING", "2012-12-05T11:30", -51], [928, "CDISCPILOT01", "LB", "01-703-1096", 76, "PH", "pH", "URINALYSIS", "5.0", "", "5", "8", "5", 5, "", 5, 8, "NORMAL", "", 1.3000000000000003, "UNSCHEDULED 1.3", null, "SCREENING", "2013-01-23T18:00", -2], [929, "CDISCPILOT01", "LB", "01-703-1096", 32, "SPGRAV", "Specific Gravity", "URINALYSIS", "1.021", "", "1.006", "1.03", "1.021", 1, "", 1, 1, "NORMAL", "Y", 1.0, "SCREENING 1", -7, "SCREENING", "2012-12-05T11:30", -51], [930, "CDISCPILOT01", "LB", "01-703-1096", 81, "SPGRAV", "Specific Gravity", "URINALYSIS", "1.027", "", "1.006", "1.03", "1.027", 1, "", 1, 1, "NORMAL", "", 1.3000000000000003, "UNSCHEDULED 1.3", null, "SCREENING", "2013-01-23T18:00", -2], [931, "CDISCPILOT01", "LB", "01-703-1096", 33, "TSH", "Thyrotropin", "OTHER", "0.79", "mIU/L", "0.32", "5", "0.79", 0, "mU/L", 0, 5, "NORMAL", "Y", 1.0, "SCREENING 1", -7, "SCREENING", "2012-12-05T11:30", -51], [932, "CDISCPILOT01", "LB", "01-703-1096", 82, "TSH", "Thyrotropin", "OTHER", "0.86", "mIU/L", "0.32", "5", "0.86", 0, "mU/L", 0, 5, "NORMAL", "", 1.3000000000000003, "UNSCHEDULED 1.3", null, "SCREENING", "2013-01-23T18:00", -2], [933, "CDISCPILOT01", "LB", "01-703-1096", 35, "UROBIL", "Urobilinogen", "URINALYSIS", "0", "", "", "", "0", 0, "", null, null, "NORMAL", "Y", 1.0, "SCREENING 1", -7, "SCREENING", "2012-12-05T11:30", -51], [934, "CDISCPILOT01", "LB", "01-703-1096", 84, "UROBIL", "Urobilinogen", "URINALYSIS", "0", "", "", "", "0", 0, "", null, null, "NORMAL", "", 1.3000000000000003, "UNSCHEDULED 1.3", null, "SCREENING", "2013-01-23T18:00", -2], [935, "CDISCPILOT01", "LB", "01-703-1096", 49, "VITB12", "Vitamin B12", "OTHER", "203", "ng/L", "200", "900", "149.7734", 149, "pmol/L", 148, 664, "NORMAL", "", 1.2000000000000002, "UNSCHEDULED 1.2", null, "SCREENING", "2012-12-29T12:00", -27], [936, "CDISCPILOT01", "LB", "01-703-1096", 85, "VITB12", "Vitamin B12", "OTHER", "312", "ng/L", "200", "900", "230.1936", 230, "pmol/L", 148, 664, "NORMAL", "", 1.3000000000000003, "UNSCHEDULED 1.3", null, "SCREENING", "2013-01-23T18:00", -2], [937, "CDISCPILOT01", "LB", "01-703-1100", 11, "COLOR", "Color", "URINALYSIS", "N", "", "", "", "N", null, "", null, null, "NORMAL", "Y", 1.0, "SCREENING 1", -7, "SCREENING", "2012-12-13T17:30", -90], [938, "CDISCPILOT01", "LB", "01-703-1100", 50, "COLOR", "Color", "URINALYSIS", "N", "", "", "", "N", null, "", null, null, "NORMAL", "", 1.2000000000000002, "UNSCHEDULED 1.2", null, "SCREENING", "2013-02-28T15:30", -13], [939, "CDISCPILOT01", "LB", "01-703-1100", 87, "COLOR", "Color", "URINALYSIS", "N", "", "", "", "N", null, "", null, null, "NORMAL", "", 4.0, "WEEK 2", 14, "TREATMENT", "2013-03-29T10:30", 17], [940, "CDISCPILOT01", "LB", "01-703-1100", 212, "COLOR", "Color", "URINALYSIS", "N", "", "", "", "N", null, "", null, null, "NORMAL", "", 9.0, "WEEK 12", 84, "TREATMENT", "2013-06-05T15:05", 85], [941, "CDISCPILOT01", "LB", "01-703-1100", 307, "COLOR", "Color", "URINALYSIS", "N", "", "", "", "N", null, "", null, null, "NORMAL", "", 12.0, "WEEK 24", 168, "TREATMENT", "2013-08-28T10:15", 169], [942, "CDISCPILOT01", "LB", "01-703-1100", 16, "KETONES", "Ketones", "URINALYSIS", "0", "", "", "", "0", 0, "", null, null, "NORMAL", "Y", 1.0, "SCREENING 1", -7, "SCREENING", "2012-12-13T17:30", -90], [943, "CDISCPILOT01", "LB", "01-703-1100", 58, "KETONES", "Ketones", "URINALYSIS", "0", "", "", "", "0", 0, "", null, null, "NORMAL", "", 1.2000000000000002, "UNSCHEDULED 1.2", null, "SCREENING", "2013-02-28T15:30", -13], [944, "CDISCPILOT01", "LB", "01-703-1100", 95, "KETONES", "Ketones", "URINALYSIS", "0", "", "", "", "0", 0, "", null, null, "NORMAL", "", 4.0, "WEEK 2", 14, "TREATMENT", "2013-03-29T10:30", 17], [945, "CDISCPILOT01", "LB", "01-703-1100", 220, "KETONES", "Ketones", "URINALYSIS", "0", "", "", "", "0", 0, "", null, null, "NORMAL", "", 9.0, "WEEK 12", 84, "TREATMENT", "2013-06-05T15:05", 85], [946, "CDISCPILOT01", "LB", "01-703-1100", 315, "KETONES", "Ketones", "URINALYSIS", "0", "", "", "", "0", 0, "", null, null, "NORMAL", "", 12.0, "WEEK 24", 168, "TREATMENT", "2013-08-28T10:15", 169], [947, "CDISCPILOT01", "LB", "01-703-1100", 18, "PH", "pH", "URINALYSIS", "5.0", "", "5", "8", "5", 5, "", 5, 8, "NORMAL", "Y", 1.0, "SCREENING 1", -7, "SCREENING", "2012-12-13T17:30", -90], [948, "CDISCPILOT01", "LB", "01-703-1100", 65, "PH", "pH", "URINALYSIS", "5.0", "", "5", "8", "5", 5, "", 5, 8, "NORMAL", "", 1.2000000000000002, "UNSCHEDULED 1.2", null, "SCREENING", "2013-02-28T15:30", -13], [949, "CDISCPILOT01", "LB", "01-703-1100", 102, "PH", "pH", "URINALYSIS", "5.0", "", "5", "8", "5", 5, "", 5, 8, "NORMAL", "", 4.0, "WEEK 2", 14, "TREATMENT", "2013-03-29T10:30", 17], [950, "CDISCPILOT01", "LB", "01-703-1100", 227, "PH", "pH", "URINALYSIS", "5.0", "", "5", "8", "5", 5, "", 5, 8, "NORMAL", "", 9.0, "WEEK 12", 84, "TREATMENT", "2013-06-05T15:05", 85], [951, "CDISCPILOT01", "LB", "01-703-1100", 322, "PH", "pH", "URINALYSIS", "5.0", "", "5", "8", "5", 5, "", 5, 8, "NORMAL", "", 12.0, "WEEK 24", 168, "TREATMENT", "2013-08-28T10:15", 169], [952, "CDISCPILOT01", "LB", "01-703-1100", 21, "SPGRAV", "Specific Gravity", "URINALYSIS", "1.007", "", "1.006", "1.03", "1.007", 1, "", 1, 1, "NORMAL", "Y", 1.0, "SCREENING 1", -7, "SCREENING", "2012-12-13T17:30", -90], [953, "CDISCPILOT01", "LB", "01-703-1100", 70, "SPGRAV", "Specific Gravity", "URINALYSIS", "1.019", "", "1.006", "1.03", "1.019", 1, "", 1, 1, "NORMAL", "", 1.2000000000000002, "UNSCHEDULED 1.2", null, "SCREENING", "2013-02-28T15:30", -13], [954, "CDISCPILOT01", "LB", "01-703-1100", 107, "SPGRAV", "Specific Gravity", "URINALYSIS", "1.016", "", "1.006", "1.03", "1.016", 1, "", 1, 1, "NORMAL", "", 4.0, "WEEK 2", 14, "TREATMENT", "2013-03-29T10:30", 17], [955, "CDISCPILOT01", "LB", "01-703-1100", 232, "SPGRAV", "Specific Gravity", "URINALYSIS", "1.022", "", "1.006", "1.03", "1.022", 1, "", 1, 1, "NORMAL", "", 9.0, "WEEK 12", 84, "TREATMENT", "2013-06-05T15:05", 85], [956, "CDISCPILOT01", "LB", "01-703-1100", 327, "SPGRAV", "Specific Gravity", "URINALYSIS", "1.020", "", "1.006", "1.03", "1.02", 1, "", 1, 1, "NORMAL", "", 12.0, "WEEK 24", 168, "TREATMENT", "2013-08-28T10:15", 169], [957, "CDISCPILOT01", "LB", "01-703-1100", 22, "TSH", "Thyrotropin", "OTHER", "17.93", "mIU/L", "0.32", "5", "17.93", 17, "mU/L", 0, 5, "HIGH", "Y", 1.0, "SCREENING 1", -7, "SCREENING", "2012-12-13T17:30", -90], [958, "CDISCPILOT01", "LB", "01-703-1100", 37, "TSH", "Thyrotropin", "OTHER", "17.32", "mIU/L", "0.32", "5", "17.32", 17, "mU/L", 0, 5, "HIGH", "", 1.1, "UNSCHEDULED 1.1", null, "SCREENING", "2012-12-27T14:30", -76], [959, "CDISCPILOT01", "LB", "01-703-1100", 71, "TSH", "Thyrotropin", "OTHER", "2.89", "mIU/L", "0.32", "5", "2.89", 2, "mU/L", 0, 5, "NORMAL", "", 1.2000000000000002, "UNSCHEDULED 1.2", null, "SCREENING", "2013-02-28T15:30", -13], [960, "CDISCPILOT01", "LB", "01-703-1100", 24, "UROBIL", "Urobilinogen", "URINALYSIS", "0", "", "", "", "0", 0, "", null, null, "NORMAL", "Y", 1.0, "SCREENING 1", -7, "SCREENING", "2012-12-13T17:30", -90], [961, "CDISCPILOT01", "LB", "01-703-1100", 73, "UROBIL", "Urobilinogen", "URINALYSIS", "0", "", "", "", "0", 0, "", null, null, "NORMAL", "", 1.2000000000000002, "UNSCHEDULED 1.2", null, "SCREENING", "2013-02-28T15:30", -13], [962, "CDISCPILOT01", "LB", "01-703-1100", 109, "UROBIL", "Urobilinogen", "URINALYSIS", "0", "", "", "", "0", 0, "", null, null, "NORMAL", "", 4.0, "WEEK 2", 14, "TREATMENT", "2013-03-29T10:30", 17], [963, "CDISCPILOT01", "LB", "01-703-1100", 234, "UROBIL", "Urobilinogen", "URINALYSIS", "0", "", "", "", "0", 0, "", null, null, "NORMAL", "", 9.0, "WEEK 12", 84, "TREATMENT", "2013-06-05T15:05", 85], [964, "CDISCPILOT01", "LB", "01-703-1100", 329, "UROBIL", "Urobilinogen", "URINALYSIS", "0", "", "", "", "0", 0, "", null, null, "NORMAL", "", 12.0, "WEEK 24", 168, "TREATMENT", "2013-08-28T10:15", 169], [965, "CDISCPILOT01", "LB", "01-703-1100", 25, "VITB12", "Vitamin B12", "OTHER", "154", "ng/L", "200", "900", "113.6212", 113, "pmol/L", 148, 664, "LOW", "Y", 1.0, "SCREENING 1", -7, "SCREENING", "2012-12-13T17:30", -90], [966, "CDISCPILOT01", "LB", "01-703-1100", 74, "VITB12", "Vitamin B12", "OTHER", "429", "ng/L", "200", "900", "316.5162", 316, "pmol/L", 148, 664, "NORMAL", "", 1.2000000000000002, "UNSCHEDULED 1.2", null, "SCREENING", "2013-02-28T15:30", -13], [967, "CDISCPILOT01", "LB", "01-703-1119", 14, "COLOR", "Color", "URINALYSIS", "N", "", "", "", "N", null, "", null, null, "NORMAL", "", 1.3000000000000003, "UNSCHEDULED 1.3", null, "SCREENING", "2013-02-14T13:30", -6], [968, "CDISCPILOT01", "LB", "01-703-1119", 50, "COLOR", "Color", "URINALYSIS", "N", "", "", "", "N", null, "", null, null, "NORMAL", "", 4.0, "WEEK 2", 14, "TREATMENT", "2013-03-10T10:40", 19], [969, "CDISCPILOT01", "LB", "01-703-1119", 175, "COLOR", "Color", "URINALYSIS", "N", "", "", "", "N", null, "", null, null, "NORMAL", "", 9.0, "WEEK 12", 84, "TREATMENT", "2013-05-17T11:25", 87], [970, "CDISCPILOT01", "LB", "01-703-1119", 210, "COLOR", "Color",