{"creationDateTime": "2023-08-04T11:25:24", "datasetJSONVersion": "1.0.0", "fileOID": "UpdatedCDISCPILOT.CDISC SDTM.3.2.MH", "clinicalData": {"studyOID": "UpdatedCDISCPILOT.CDISC SDTM.3.2", "metaDataVersionOID": "MDV.UpdatedCDISCPILOT.CDISC SDTM.3.2", "itemGroupData": {"MH": {"records": 1817, "name": "MH", "label": "Medical History", "items": [{"OID": "ITEMGROUPDATASEQ", "name": "ITEMGROUPDATASEQ", "label": "Record identifier", "type": "integer"}, {"OID": "IT.MH.STUDYID", "name": "STUDYID", "label": "Study Identifier", "type": "string", "length": 12, "keySequence": 1}, {"OID": "IT.MH.DOMAIN", "name": "DOMAIN", "label": "Domain Abbreviation", "type": "string", "length": 2}, {"OID": "IT.MH.USUBJID", "name": "USUBJID", "label": "Unique Subject Identifier", "type": "string", "length": 11, "keySequence": 2}, {"OID": "IT.MH.MHSEQ", "name": "MHSEQ", "label": "Sequence Number", "type": "integer", "length": 8}, {"OID": "IT.MH.MHSPID", "name": "MHSPID", "label": "Sponsor-Defined Identifier", "type": "string", "length": 3}, {"OID": "IT.MH.MHTERM", "name": "MHTERM", "label": "Reported Term for the Medical History", "type": "string", "length": 19, "keySequence": 3}, {"OID": "IT.MH.MHLLT", "name": "MHLLT", "label": "Lowest Level Term", "type": "string", "length": 200}, {"OID": "IT.MH.MHDECOD", "name": "MHDECOD", "label": "Dictionary-Derived Term", "type": "string", "length": 44}, {"OID": "IT.MH.MHHLT", "name": "MHHLT", "label": "High Level Term", "type": "string", "length": 200}, {"OID": "IT.MH.MHHLGT", "name": "MHHLGT", "label": "High Level Group Term", "type": "string", "length": 200}, {"OID": "IT.MH.MHCAT", "name": "MHCAT", "label": "Category for Medical History", "type": "string", "length": 34}, {"OID": "IT.MH.MHBODSYS", "name": "MHBODSYS", "label": "Body System or Organ Class", "type": "string", "length": 67}, {"OID": "IT.MH.MHSEV", "name": "MHSEV", "label": "Severity/Intensity", "type": "string", "length": 8}, {"OID": "IT.MH.VISITNUM", "name": "VISITNUM", "label": "Visit Number", "type": "float", "length": 8}, {"OID": "IT.MH.VISIT", "name": "VISIT", "label": "Visit Name", "type": "string", "length": 19}, {"OID": "IT.MH.VISITDY", "name": "VISITDY", "label": "Planned Study Day of Visit", "type": "integer", "length": 8}, {"OID": "IT.MH.MHDTC", "name": "MHDTC", "label": "Date/Time of History Collection", "type": "string", "length": 10}, {"OID": "IT.MH.MHSTDTC", "name": "MHSTDTC", "label": "Start Date/Time of Medical History Event", "type": "string", "length": 10, "keySequence": 4}, {"OID": "IT.MH.MHDY", "name": "MHDY", "label": "Study Day of History Collection", "type": "integer", "length": 8}], "itemData": [[1, "CDISCPILOT01", "MH", "01-701-1015", 9, "", "ALZHEIMER'S DISEASE", "", "", "", "", "PRIMARY DIAGNOSIS", "", "", 1.0, "SCREENING 1", -7, "2013-12-26", "2010-04-30", -7], [2, "CDISCPILOT01", "MH", "01-701-1015", 10, "", "VERBATIM_0539", "GALLBLADDER STONES", "CHOLELITHIASIS", "HLT_0084", "HLGT_0177", "HISTORICAL DIAGNOSIS", "HEPATOBILIARY DISORDERS", "", 1.0, "SCREENING 1", -7, "2013-12-26", "2012", -7], [3, "CDISCPILOT01", "MH", "01-701-1015", 4, "E02", "VERBATIM_0841", "HEARTBURN", "DYSPEPSIA", "HLT_0244", "HLGT_0716", "SIGNIFICANT PRE-EXISTING CONDITION", "GASTROINTESTINAL DISORDERS", "MILD", 1.0, "SCREENING 1", -7, "2013-12-26", "", -7], [4, "CDISCPILOT01", "MH", "01-701-1015", 2, "E03", "VERBATIM_0301", "HEADACHE", "HEADACHE", "HLT_0064", "HLGT_0344", "SIGNIFICANT PRE-EXISTING CONDITION", "NERVOUS SYSTEM DISORDERS", "MILD", 1.0, "SCREENING 1", -7, "2013-12-26", "", -7], [5, "CDISCPILOT01", "MH", "01-701-1015", 5, "E04", "VERBATIM_1779", "NUMBNESS IN LEG", "HYPOAESTHESIA", "HLT_0014", "HLGT_0528", "SIGNIFICANT PRE-EXISTING CONDITION", "NERVOUS SYSTEM DISORDERS", "MILD", 1.0, "SCREENING 1", -7, "2013-12-26", "", -7], [6, "CDISCPILOT01", "MH", "01-701-1015", 8, "", "VERBATIM_0140", "SUBTOTAL HYSTERECTOMY", "HYSTERECTOMY", "HLT_0675", "HLGT_0657", "HISTORICAL DIAGNOSIS", "SURGICAL AND MEDICAL PROCEDURES", "", 1.0, "SCREENING 1", -7, "2013-12-26", "1986", -7], [7, "CDISCPILOT01", "MH", "01-701-1015", 1, "E01", "VERBATIM_0135", "PALPITATIONS", "PALPITATIONS", "HLT_0493", "HLGT_0593", "SIGNIFICANT PRE-EXISTING CONDITION", "CARDIAC DISORDERS", "MILD", 1.0, "SCREENING 1", -7, "2013-12-26", "", -7], [8, "CDISCPILOT01", "MH", "01-701-1015", 11, "", "VERBATIM_1230", "SORE THROAT", "PHARYNGOLARYNGEAL PAIN", "HLT_0130", "HLGT_0402", "HISTORICAL DIAGNOSIS", "RESPIRATORY, THORACIC AND MEDIASTINAL DISORDERS", "", 1.0, "SCREENING 1", -7, "2013-12-26", "2013-12", -7], [9, "CDISCPILOT01", "MH", "01-701-1015", 6, "", "VERBATIM_1004", "THYROIDECTOMY PARTIAL", "THYROIDECTOMY PARTIAL", "HLT_0243", "HLGT_0016", "HISTORICAL DIAGNOSIS", "SURGICAL AND MEDICAL PROCEDURES", "", 1.0, "SCREENING 1", -7, "2013-12-26", "1973", -7], [10, "CDISCPILOT01", "MH", "01-701-1015", 3, "E05", "VERBATIM_0825", "TINNITUS", "TINNITUS", "HLT_0570", "HLGT_0180", "SIGNIFICANT PRE-EXISTING CONDITION", "EAR AND LABYRINTH DISORDERS", "MILD", 1.0, "SCREENING 1", -7, "2013-12-26", "", -7], [11, "CDISCPILOT01", "MH", "01-701-1015", 7, "", "VERBATIM_1716", "TONSILLECTOMY", "TONSILLECTOMY", "HLT_0202", "HLGT_0199", "HISTORICAL DIAGNOSIS", "SURGICAL AND MEDICAL PROCEDURES", "", 1.0, "SCREENING 1", -7, "2013-12-26", "1973", -7], [12, "CDISCPILOT01", "MH", "01-701-1023", 16, "", "ALZHEIMER'S DISEASE", "", "", "", "", "PRIMARY DIAGNOSIS", "", "", 1.0, "SCREENING 1", -7, "2012-07-22", "2006-03-11", -14], [13, "CDISCPILOT01", "MH", "01-701-1023", 9, "", "VERBATIM_1775", "APPENDECTOMY", "APPENDICECTOMY", "HLT_0707", "HLGT_0363", "HISTORICAL DIAGNOSIS", "SURGICAL AND MEDICAL PROCEDURES", "", 1.0, "SCREENING 1", -7, "2012-07-22", "1956", -14], [14, "CDISCPILOT01", "MH", "01-701-1023", 8, "", "VERBATIM_0788", "APPENDICITIS", "APPENDICITIS", "HLT_0703", "HLGT_0283", "HISTORICAL DIAGNOSIS", "INFECTIONS AND INFESTATIONS", "", 1.0, "SCREENING 1", -7, "2012-07-22", "1956", -14], [15, "CDISCPILOT01", "MH", "01-701-1023", 19, "", "VERBATIM_0291", "LOW BACK PAIN", "BACK PAIN", "HLT_0115", "HLGT_0508", "HISTORICAL DIAGNOSIS", "MUSCULOSKELETAL AND CONNECTIVE TISSUE DISORDERS", "", 1.0, "SCREENING 1", -7, "2012-07-22", "2007", -14], [16, "CDISCPILOT01", "MH", "01-701-1023", 21, "", "VERBATIM_0073", "CELLULITIS OF FOOT", "CELLULITIS", "HLT_0613", "HLGT_0066", "HISTORICAL DIAGNOSIS", "INFECTIONS AND INFESTATIONS", "", 1.0, "SCREENING 1", -7, "2012-07-22", "2009", -14], [17, "CDISCPILOT01", "MH", "01-701-1023", 4, "E04", "VERBATIM_0800", "INDIGESTION", "DYSPEPSIA", "HLT_0244", "HLGT_0716", "SIGNIFICANT PRE-EXISTING CONDITION", "GASTROINTESTINAL DISORDERS", "MILD", 1.0, "SCREENING 1", -7, "2012-07-22", "", -14], [18, "CDISCPILOT01", "MH", "01-701-1023", 6, "E01", "VERBATIM_1042", "DYSPNEA EXERTIONAL", "DYSPNOEA EXERTIONAL", "HLT_0465", "HLGT_0475", "SIGNIFICANT PRE-EXISTING CONDITION", "RESPIRATORY, THORACIC AND MEDIASTINAL DISORDERS", "MILD", 1.0, "SCREENING 1", -7, "2012-07-22", "", -14], [19, "CDISCPILOT01", "MH", "01-701-1023", 20, "", "VERBATIM_1154", "ECZEMA", "ECZEMA", "HLT_0747", "HLGT_0748", "HISTORICAL DIAGNOSIS", "SKIN AND SUBCUTANEOUS TISSUE DISORDERS", "", 1.0, "SCREENING 1", -7, "2012-07-22", "2007", -14], [20, "CDISCPILOT01", "MH", "01-701-1023", 1, "E02", "VERBATIM_0249", "GASTROESOPHAGEAL REFLUX", "GASTROOESOPHAGEAL REFLUX DISEASE", "HLT_0407", "HLGT_0304", "SIGNIFICANT PRE-EXISTING CONDITION", "GASTROINTESTINAL DISORDERS", "MILD", 1.0, "SCREENING 1", -7, "2012-07-22", "", -14], [21, "CDISCPILOT01", "MH", "01-701-1023", 5, "E05", "VERBATIM_0929", "HEADACHE", "HEADACHE", "HLT_0064", "HLGT_0344", "SIGNIFICANT PRE-EXISTING CONDITION", "NERVOUS SYSTEM DISORDERS", "MILD", 1.0, "SCREENING 1", -7, "2012-07-22", "", -14], [22, "CDISCPILOT01", "MH", "01-701-1023", 3, "E03", "VERBATIM_0699", "HIATAL HERNIA", "HIATUS HERNIA", "HLT_0159", "HLGT_0109", "SIGNIFICANT PRE-EXISTING CONDITION", "GASTROINTESTINAL DISORDERS", "MILD", 1.0, "SCREENING 1", -7, "2012-07-22", "", -14], [23, "CDISCPILOT01", "MH", "01-701-1023", 15, "", "VERBATIM_0342", "HYPERTENSION", "HYPERTENSION", "HLT_0228", "HLGT_0476", "HISTORICAL DIAGNOSIS", "VASCULAR DISORDERS", "", 1.0, "SCREENING 1", -7, "2012-07-22", "2005-10", -14], [24, "CDISCPILOT01", "MH", "01-701-1023", 12, "", "VERBATIM_0596", "NUMBNESS OF UPPER ARM", "HYPOAESTHESIA", "HLT_0014", "HLGT_0528", "HISTORICAL DIAGNOSIS", "NERVOUS SYSTEM DISORDERS", "", 1.0, "SCREENING 1", -7, "2012-07-22", "1982", -14], [25, "CDISCPILOT01", "MH", "01-701-1023", 13, "", "VERBATIM_1554", "INGUINAL HERNIA REPAIR", "INGUINAL HERNIA REPAIR", "HLT_0320", "HLGT_0772", "HISTORICAL DIAGNOSIS", "SURGICAL AND MEDICAL PROCEDURES", "", 1.0, "SCREENING 1", -7, "2012-07-22", "1999", -14], [26, "CDISCPILOT01", "MH", "01-701-1023", 2, "E06", "VERBATIM_0461", "MUSCULAR PAIN", "MYALGIA", "HLT_0700", "HLGT_0121", "SIGNIFICANT PRE-EXISTING CONDITION", "MUSCULOSKELETAL AND CONNECTIVE TISSUE DISORDERS", "MILD", 1.0, "SCREENING 1", -7, "2012-07-22", "", -14], [27, "CDISCPILOT01", "MH", "01-701-1023", 7, "E07", "VERBATIM_1532", "MYOPIA", "MYOPIA", "HLT_0282", "HLGT_0271", "SIGNIFICANT PRE-EXISTING CONDITION", "EYE DISORDERS", "MILD", 1.0, "SCREENING 1", -7, "2012-07-22", "", -14], [28, "CDISCPILOT01", "MH", "01-701-1023", 18, "", "VERBATIM_1617", "PAIN TRAUMA ACTIVATED", "PAIN TRAUMA ACTIVATED", "HLT_0579", "HLGT_0732", "HISTORICAL DIAGNOSIS", "INJURY, POISONING AND PROCEDURAL COMPLICATIONS", "", 1.0, "SCREENING 1", -7, "2012-07-22", "2006-04", -14], [29, "CDISCPILOT01", "MH", "01-701-1023", 17, "", "VERBATIM_0388", "PENILE PROSTHESIS INSERTION", "PENILE PROSTHESIS INSERTION", "HLT_0448", "HLGT_0303", "HISTORICAL DIAGNOSIS", "SURGICAL AND MEDICAL PROCEDURES", "", 1.0, "SCREENING 1", -7, "2012-07-22", "2006-04", -14], [30, "CDISCPILOT01", "MH", "01-701-1023", 22, "", "VERBATIM_1364", "ITCHY SKIN", "PRURITUS", "HLT_0778", "HLGT_0695", "HISTORICAL DIAGNOSIS", "SKIN AND SUBCUTANEOUS TISSUE DISORDERS", "", 1.0, "SCREENING 1", -7, "2012-07-22", "2009", -14], [31, "CDISCPILOT01", "MH", "01-701-1023", 14, "", "VERBATIM_1200", "SCIATICA", "SCIATICA", "HLT_0242", "HLGT_0293", "HISTORICAL DIAGNOSIS", "NERVOUS SYSTEM DISORDERS", "", 1.0, "SCREENING 1", -7, "2012-07-22", "2005", -14], [32, "CDISCPILOT01", "MH", "01-701-1023", 11, "", "VERBATIM_1769", "SINUSITIS", "SINUSITIS", "HLT_0262", "HLGT_0249", "HISTORICAL DIAGNOSIS", "INFECTIONS AND INFESTATIONS", "", 1.0, "SCREENING 1", -7, "2012-07-22", "1978", -14], [33, "CDISCPILOT01", "MH", "01-701-1023", 10, "", "VERBATIM_1002", "ELBOW FRACTURE", "UPPER LIMB FRACTURE", "HLT_0472", "HLGT_0247", "HISTORICAL DIAGNOSIS", "INJURY, POISONING AND PROCEDURAL COMPLICATIONS", "", 1.0, "SCREENING 1", -7, "2012-07-22", "1963", -14], [34, "CDISCPILOT01", "MH", "01-701-1028", 6, "", "ALZHEIMER'S DISEASE", "", "", "", "", "PRIMARY DIAGNOSIS", "", "", 1.0, "SCREENING 1", -7, "2013-07-11", "2009-12-16", -8], [35, "CDISCPILOT01", "MH", "01-701-1028", 4, "", "VERBATIM_1775", "APPENDECTOMY", "APPENDICECTOMY", "HLT_0707", "HLGT_0363", "HISTORICAL DIAGNOSIS", "SURGICAL AND MEDICAL PROCEDURES", "", 1.0, "SCREENING 1", -7, "2013-07-11", "1968", -8], [36, "CDISCPILOT01", "MH", "01-701-1028", 3, "E02", "VERBATIM_1686", "ARTHRITIS", "ARTHRITIS", "HLT_0019", "HLGT_0587", "SIGNIFICANT PRE-EXISTING CONDITION", "MUSCULOSKELETAL AND CONNECTIVE TISSUE DISORDERS", "MODERATE", 1.0, "SCREENING 1", -7, "2013-07-11", "", -8], [37, "CDISCPILOT01", "MH", "01-701-1028", 5, "", "VERBATIM_1006", "LIPECTOMY", "LIPECTOMY", "HLT_0233", "HLGT_0786", "HISTORICAL DIAGNOSIS", "SURGICAL AND MEDICAL PROCEDURES", "", 1.0, "SCREENING 1", -7, "2013-07-11", "1981", -8], [38, "CDISCPILOT01", "MH", "01-701-1028", 1, "E01", "VERBATIM_0428", "LIPOMA", "LIPOMA", "HLT_0487", "HLGT_0591", "SIGNIFICANT PRE-EXISTING CONDITION", "NEOPLASMS BENIGN, MALIGNANT AND UNSPECIFIED (INCL CYSTS AND POLYPS)", "MODERATE", 1.0, "SCREENING 1", -7, "2013-07-11", "", -8], [39, "CDISCPILOT01", "MH", "01-701-1028", 2, "E03", "VERBATIM_0507", "PRESBYOPIA", "PRESBYOPIA", "HLT_0230", "HLGT_0759", "SIGNIFICANT PRE-EXISTING CONDITION", "EYE DISORDERS", "MILD", 1.0, "SCREENING 1", -7, "2013-07-11", "", -8], [40, "CDISCPILOT01", "MH", "01-701-1033", 26, "", "ALZHEIMER'S DISEASE", "", "", "", "", "PRIMARY DIAGNOSIS", "", "", 1.0, "SCREENING 1", -7, "2014-03-10", "2009-08-02", -8], [41, "CDISCPILOT01", "MH", "01-701-1033", 4, "E09", "VERBATIM_0746", "ANGINA PECTORIS", "ANGINA PECTORIS", "HLT_0033", "HLGT_0063", "SIGNIFICANT PRE-EXISTING CONDITION", "CARDIAC DISORDERS", "MILD", 1.0, "SCREENING 1", -7, "2014-03-10", "", -8], [42, "CDISCPILOT01", "MH", "01-701-1033", 3, "E05", "VERBATIM_0672", "KNEE PAIN", "ARTHRALGIA", "HLT_0375", "HLGT_0610", "SIGNIFICANT PRE-EXISTING CONDITION", "MUSCULOSKELETAL AND CONNECTIVE TISSUE DISORDERS", "MILD", 1.0, "SCREENING 1", -7, "2014-03-10", "", -8], [43, "CDISCPILOT01", "MH", "01-701-1033", 2, "E03", "VERBATIM_0165", "BALANCE DIFFICULTY", "BALANCE DISORDER", "HLT_0541", "HLGT_0101", "SIGNIFICANT PRE-EXISTING CONDITION", "NERVOUS SYSTEM DISORDERS", "MILD", 1.0, "SCREENING 1", -7, "2014-03-10", "", -8], [44, "CDISCPILOT01", "MH", "01-701-1033", 1, "E02", "VERBATIM_0138", "BENIGN PROSTATIC HYPERTROPHY", "BENIGN PROSTATIC HYPERPLASIA", "HLT_0215", "HLGT_0568", "SIGNIFICANT PRE-EXISTING CONDITION", "REPRODUCTIVE SYSTEM AND BREAST DISORDERS", "MILD", 1.0, "SCREENING 1", -7, "2014-03-10", "", -8], [45, "CDISCPILOT01", "MH", "01-701-1033", 6, "E08", "VERBATIM_1421", "COUGH", "COUGH", "HLT_0701", "HLGT_0280", "SIGNIFICANT PRE-EXISTING CONDITION", "RESPIRATORY, THORACIC AND MEDIASTINAL DISORDERS", "MILD", 1.0, "SCREENING 1", -7, "2014-03-10", "", -8], [46, "CDISCPILOT01", "MH", "01-701-1033", 24, "", "VERBATIM_0816", "EOSINOPHILIC PNEUMONIA", "EOSINOPHILIC PNEUMONIA", "HLT_0207", "HLGT_0529", "HISTORICAL DIAGNOSIS", "RESPIRATORY, THORACIC AND MEDIASTINAL DISORDERS", "", 1.0, "SCREENING 1", -7, "2014-03-10", "2008", -8], [47, "CDISCPILOT01", "MH", "01-701-1033", 18, "", "VERBATIM_0991", "HAND REPAIR OPERATION", "HAND REPAIR OPERATION", "HLT_0581", "HLGT_0276", "HISTORICAL DIAGNOSIS", "SURGICAL AND MEDICAL PROCEDURES", "", 1.0, "SCREENING 1", -7, "2014-03-10", "1982", -8], [48, "CDISCPILOT01", "MH", "01-701-1033", 14, "", "VERBATIM_0201", "IRON DEFICIENCY ANEMIA", "IRON DEFICIENCY ANAEMIA", "HLT_0331", "HLGT_0739", "HISTORICAL DIAGNOSIS", "BLOOD AND LYMPHATIC SYSTEM DISORDERS", "", 1.0, "SCREENING 1", -7, "2014-03-10", "1972", -8], [49, "CDISCPILOT01", "MH", "01-701-1033", 23, "", "VERBATIM_1457", "FRACTURED JAW", "JAW FRACTURE", "HLT_0488", "HLGT_0420", "HISTORICAL DIAGNOSIS", "INJURY, POISONING AND PROCEDURAL COMPLICATIONS", "", 1.0, "SCREENING 1", -7, "2014-03-10", "2007", -8], [50, "CDISCPILOT01", "MH", "01-701-1033", 25, "", "VERBATIM_1209", "JOINT PROSTHESIS INSERTION", "JOINT ARTHROPLASTY", "HLT_0416", "HLGT_0120", "HISTORICAL DIAGNOSIS", "SURGICAL AND MEDICAL PROCEDURES", "", 1.0, "SCREENING 1", -7, "2014-03-10", "2008", -8], [51, "CDISCPILOT01", "MH", "01-701-1033", 15, "", "VERBATIM_0429", "LACERATION", "LACERATION", "HLT_0668", "HLGT_0567", "HISTORICAL DIAGNOSIS", "INJURY, POISONING AND PROCEDURAL COMPLICATIONS", "", 1.0, "SCREENING 1", -7, "2014-03-10", "1982", -8], [52, "CDISCPILOT01", "MH", "01-701-1033", 13, "", "VERBATIM_1425", "LOCALIZED EDEMA", "LOCALISED OEDEMA", "HLT_0410", "HLGT_0372", "HISTORICAL DIAGNOSIS", "GENERAL DISORDERS AND ADMINISTRATION SITE CONDITIONS", "", 1.0, "SCREENING 1", -7, "2014-03-10", "1964", -8], [53, "CDISCPILOT01", "MH", "01-701-1033", 5, "E04", "VERBATIM_0858", "GONARTHRITIS", "MONARTHRITIS", "HLT_0592", "HLGT_0196", "SIGNIFICANT PRE-EXISTING CONDITION", "MUSCULOSKELETAL AND CONNECTIVE TISSUE DISORDERS", "MILD", 1.0, "SCREENING 1", -7, "2014-03-10", "", -8], [54, "CDISCPILOT01", "MH", "01-701-1033", 7, "E06", "VERBATIM_1532", "MYOPIA", "MYOPIA", "HLT_0282", "HLGT_0271", "SIGNIFICANT PRE-EXISTING CONDITION", "EYE DISORDERS", "MILD", 1.0, "SCREENING 1", -7, "2014-03-10", "", -8], [55, "CDISCPILOT01", "MH", "01-701-1033", 8, "E07", "VERBATIM_1612", "NASAL CONGESTION", "NASAL CONGESTION", "HLT_0118", "HLGT_0549", "SIGNIFICANT PRE-EXISTING CONDITION", "RESPIRATORY, THORACIC AND MEDIASTINAL DISORDERS", "MILD", 1.0, "SCREENING 1", -7, "2014-03-10", "", -8], [56, "CDISCPILOT01", "MH", "01-701-1033", 11, "", "VERBATIM_0868", "NERVE COMPRESSION", "NERVE COMPRESSION", "HLT_0463", "HLGT_0502", "HISTORICAL DIAGNOSIS", "NERVOUS SYSTEM DISORDERS", "", 1.0, "SCREENING 1", -7, "2014-03-10", "1955", -8], [57, "CDISCPILOT01", "MH", "01-701-1033", 9, "E01", "VERBATIM_1653", "ANKLE EDEMA", "OEDEMA PERIPHERAL", "HLT_0661", "HLGT_0137", "SIGNIFICANT PRE-EXISTING CONDITION", "GENERAL DISORDERS AND ADMINISTRATION SITE CONDITIONS", "MILD", 1.0, "SCREENING 1", -7, "2014-03-10", "", -8], [58, "CDISCPILOT01", "MH", "01-701-1033", 12, "", "VERBATIM_1594", "PLEURISY", "PLEURISY", "HLT_0268", "HLGT_0356", "HISTORICAL DIAGNOSIS", "RESPIRATORY, THORACIC AND MEDIASTINAL DISORDERS", "", 1.0, "SCREENING 1", -7, "2014-03-10", "1955", -8], [59, "CDISCPILOT01", "MH", "01-701-1033", 21, "", "VERBATIM_0870", "FRACTURED RIBS", "RIB FRACTURE", "HLT_0292", "HLGT_0583", "HISTORICAL DIAGNOSIS", "INJURY, POISONING AND PROCEDURAL COMPLICATIONS", "", 1.0, "SCREENING 1", -7, "2014-03-10", "2007", -8], [60, "CDISCPILOT01", "MH", "01-701-1033", 17, "", "VERBATIM_0752", "LOSS OF SENSATION", "SENSORY LOSS", "HLT_0164", "HLGT_0718", "HISTORICAL DIAGNOSIS", "NERVOUS SYSTEM DISORDERS", "", 1.0, "SCREENING 1", -7, "2014-03-10", "1982", -8], [61, "CDISCPILOT01", "MH", "01-701-1033", 16, "", "VERBATIM_0581", "FAINTING", "SYNCOPE", "HLT_0440", "HLGT_0310", "HISTORICAL DIAGNOSIS", "NERVOUS SYSTEM DISORDERS", "", 1.0, "SCREENING 1", -7, "2014-03-10", "1982", -8], [62, "CDISCPILOT01", "MH", "01-701-1033", 10, "", "VERBATIM_1716", "TONSILLECTOMY", "TONSILLECTOMY", "HLT_0202", "HLGT_0199", "HISTORICAL DIAGNOSIS", "SURGICAL AND MEDICAL PROCEDURES", "", 1.0, "SCREENING 1", -7, "2014-03-10", "1951", -8], [63, "CDISCPILOT01", "MH", "01-701-1033", 20, "", "VERBATIM_1756", "UMBILICAL HERNIA", "UMBILICAL HERNIA", "HLT_0067", "HLGT_0187", "HISTORICAL DIAGNOSIS", "GASTROINTESTINAL DISORDERS", "", 1.0, "SCREENING 1", -7, "2014-03-10", "1993", -8], [64, "CDISCPILOT01", "MH", "01-701-1033", 19, "", "VERBATIM_0116", "UMBILICAL HERNIA REPAIR", "UMBILICAL HERNIA REPAIR", "HLT_0278", "HLGT_0377", "HISTORICAL DIAGNOSIS", "SURGICAL AND MEDICAL PROCEDURES", "", 1.0, "SCREENING 1", -7, "2014-03-10", "1993", -8], [65, "CDISCPILOT01", "MH", "01-701-1033", 22, "", "VERBATIM_1156", "ELBOW FRACTURE", "UPPER LIMB FRACTURE", "HLT_0472", "HLGT_0247", "HISTORICAL DIAGNOSIS", "INJURY, POISONING AND PROCEDURAL COMPLICATIONS", "", 1.0, "SCREENING 1", -7, "2014-03-10", "2007", -8], [66, "CDISCPILOT01", "MH", "01-701-1034", 13, "", "ALZHEIMER'S DISEASE", "", "", "", "", "PRIMARY DIAGNOSIS", "", "", 1.0, "SCREENING 1", -7, "2014-06-24", "2011-09-29", -7], [67, "CDISCPILOT01", "MH", "01-701-1034", 5, "E01", "VERBATIM_1385", "ABDOMINAL PAIN", "ABDOMINAL PAIN", "HLT_0217", "HLGT_0419", "SIGNIFICANT PRE-EXISTING CONDITION", "GASTROINTESTINAL DISORDERS", "MILD", 1.0, "SCREENING 1", -7, "2014-06-24", "", -7], [68, "CDISCPILOT01", "MH", "01-701-1034", 10, "", "VERBATIM_1133", "RECTAL FISTULA", "ANAL FISTULA", "HLT_0653", "HLGT_0268", "HISTORICAL DIAGNOSIS", "GASTROINTESTINAL DISORDERS", "", 1.0, "SCREENING 1", -7, "2014-06-24", "1962", -7], [69, "CDISCPILOT01", "MH", "01-701-1034", 8, "", "VERBATIM_1775", "APPENDECTOMY", "APPENDICECTOMY", "HLT_0707", "HLGT_0363", "HISTORICAL DIAGNOSIS", "SURGICAL AND MEDICAL PROCEDURES", "", 1.0, "SCREENING 1", -7, "2014-06-24", "1949", -7], [70, "CDISCPILOT01", "MH", "01-701-1034", 3, "E06", "VERBATIM_0753", "ARTHRITIS", "ARTHRITIS", "HLT_0019", "HLGT_0587", "SIGNIFICANT PRE-EXISTING CONDITION", "MUSCULOSKELETAL AND CONNECTIVE TISSUE DISORDERS", "MILD", 1.0, "SCREENING 1", -7, "2014-06-24", "", -7], [71, "CDISCPILOT01", "MH", "01-701-1034", 4, "E04", "VERBATIM_0763", "ARTHRITIS", "ARTHRITIS", "HLT_0019", "HLGT_0587", "SIGNIFICANT PRE-EXISTING CONDITION", "MUSCULOSKELETAL AND CONNECTIVE TISSUE DISORDERS", "MILD", 1.0, "SCREENING 1", -7, "2014-06-24", "", -7], [72, "CDISCPILOT01", "MH", "01-701-1034", 16, "", "VERBATIM_1680", "BLOOD PRESSURE INCREASED", "BLOOD PRESSURE INCREASED", "HLT_0399", "HLGT_0647", "HISTORICAL DIAGNOSIS", "INVESTIGATIONS", "", 1.0, "SCREENING 1", -7, "2014-06-24", "2014-06-11", -7], [73, "CDISCPILOT01", "MH", "01-701-1034", 1, "E02", "VERBATIM_0443", "CONSTIPATION", "CONSTIPATION", "HLT_0402", "HLGT_0635", "SIGNIFICANT PRE-EXISTING CONDITION", "GASTROINTESTINAL DISORDERS", "MILD", 1.0, "SCREENING 1", -7, "2014-06-24", "", -7], [74, "CDISCPILOT01", "MH", "01-701-1034", 12, "", "VERBATIM_1162", "FACE LIFT", "FACE LIFT", "HLT_0743", "HLGT_0520", "HISTORICAL DIAGNOSIS", "SURGICAL AND MEDICAL PROCEDURES", "", 1.0, "SCREENING 1", -7, "2014-06-24", "2011-08-21", -7], [75, "CDISCPILOT01", "MH", "01-701-1034", 11, "", "VERBATIM_1132", "FOOT FRACTURE", "FOOT FRACTURE", "HLT_0768", "HLGT_0287", "HISTORICAL DIAGNOSIS", "INJURY, POISONING AND PROCEDURAL COMPLICATIONS", "", 1.0, "SCREENING 1", -7, "2014-06-24", "2004", -7], [76, "CDISCPILOT01", "MH", "01-701-1034", 6, "E05", "VERBATIM_1683", "HYPEROPIA", "HYPERMETROPIA", "HLT_0546", "HLGT_0646", "SIGNIFICANT PRE-EXISTING CONDITION", "EYE DISORDERS", "MILD", 1.0, "SCREENING 1", -7, "2014-06-24", "", -7], [77, "CDISCPILOT01", "MH", "01-701-1034", 2, "E03", "VERBATIM_0692", "HYPOTHYROIDISM", "HYPOTHYROIDISM", "HLT_0454", "HLGT_0558", "SIGNIFICANT PRE-EXISTING CONDITION", "ENDOCRINE DISORDERS", "MILD", 1.0, "SCREENING 1", -7, "2014-06-24", "", -7], [78, "CDISCPILOT01", "MH", "01-701-1034", 9, "", "VERBATIM_0936", "HYSTERECTOMY", "HYSTERECTOMY", "HLT_0675", "HLGT_0657", "HISTORICAL DIAGNOSIS", "SURGICAL AND MEDICAL PROCEDURES", "", 1.0, "SCREENING 1", -7, "2014-06-24", "1960", -7], [79, "CDISCPILOT01", "MH", "01-701-1034", 14, "", "VERBATIM_0122", "LEG FRACTURE", "LOWER LIMB FRACTURE", "HLT_0348", "HLGT_0435", "HISTORICAL DIAGNOSIS", "INJURY, POISONING AND PROCEDURAL COMPLICATIONS", "", 1.0, "SCREENING 1", -7, "2014-06-24", "2012", -7], [80, "CDISCPILOT01", "MH", "01-701-1034", 15, "", "VERBATIM_0973", "MUSCLE SPASMS", "MUSCLE SPASMS", "HLT_0078", "HLGT_0750", "HISTORICAL DIAGNOSIS", "MUSCULOSKELETAL AND CONNECTIVE TISSUE DISORDERS", "", 1.0, "SCREENING 1", -7, "2014-06-24", "2013-12-21", -7], [81, "CDISCPILOT01", "MH", "01-701-1034", 7, "", "VERBATIM_1716", "TONSILLECTOMY", "TONSILLECTOMY", "HLT_0202", "HLGT_0199", "HISTORICAL DIAGNOSIS", "SURGICAL AND MEDICAL PROCEDURES", "", 1.0, "SCREENING 1", -7, "2014-06-24", "1946", -7], [82, "CDISCPILOT01", "MH", "01-701-1047", 14, "", "ALZHEIMER'S DISEASE", "", "", "", "", "PRIMARY DIAGNOSIS", "", "", 1.0, "SCREENING 1", -7, "2013-01-22", "2009-07-26", -21], [83, "CDISCPILOT01", "MH", "01-701-1047", 5, "E04", "VERBATIM_1245", "ARTHRITIS", "ARTHRITIS", "HLT_0019", "HLGT_0587", "SIGNIFICANT PRE-EXISTING CONDITION", "MUSCULOSKELETAL AND CONNECTIVE TISSUE DISORDERS", "MILD", 1.0, "SCREENING 1", -7, "2013-01-22", "", -21], [84, "CDISCPILOT01", "MH", "01-701-1047", 12, "", "VERBATIM_0514", "CATARACT OPERATION", "CATARACT OPERATION", "HLT_0432", "HLGT_0058", "HISTORICAL DIAGNOSIS", "SURGICAL AND MEDICAL PROCEDURES", "", 1.0, "SCREENING 1", -7, "2013-01-22", "2009", -21], [85, "CDISCPILOT01", "MH", "01-701-1047", 16, "", "VERBATIM_0675", "CATARACT OPERATION", "CATARACT OPERATION", "HLT_0432", "HLGT_0058", "HISTORICAL DIAGNOSIS", "SURGICAL AND MEDICAL PROCEDURES", "", 1.0, "SCREENING 1", -7, "2013-01-22", "2012", -21], [86, "CDISCPILOT01", "MH", "01-701-1047", 11, "", "VERBATIM_1324", "CHOLECYSTECTOMY", "CHOLECYSTECTOMY", "HLT_0149", "HLGT_0074", "HISTORICAL DIAGNOSIS", "SURGICAL AND MEDICAL PROCEDURES", "", 1.0, "SCREENING 1", -7, "2013-01-22", "1987", -21], [87, "CDISCPILOT01", "MH", "01-701-1047", 15, "", "VERBATIM_0361", "BLADDER INFECTION", "CYSTITIS", "HLT_0739", "HLGT_0129", "HISTORICAL DIAGNOSIS", "INFECTIONS AND INFESTATIONS", "", 1.0, "SCREENING 1", -7, "2013-01-22", "2012", -21], [88, "CDISCPILOT01", "MH", "01-701-1047", 13, "", "VERBATIM_1684", "HEMORRHOIDS", "HAEMORRHOIDS", "HLT_0681", "HLGT_0485", "HISTORICAL DIAGNOSIS", "GASTROINTESTINAL DISORDERS", "", 1.0, "SCREENING 1", -7, "2013-01-22", "2009", -21], [89, "CDISCPILOT01", "MH", "01-701-1047", 3, "E01", "VERBATIM_0699", "HIATAL HERNIA", "HIATUS HERNIA", "HLT_0159", "HLGT_0109", "SIGNIFICANT PRE-EXISTING CONDITION", "GASTROINTESTINAL DISORDERS", "MILD", 1.0, "SCREENING 1", -7, "2013-01-22", "", -21], [90, "CDISCPILOT01", "MH", "01-701-1047", 2, "E07", "VERBATIM_0538", "NUMBNESS IN HAND", "HYPOAESTHESIA", "HLT_0014", "HLGT_0528", "SIGNIFICANT PRE-EXISTING CONDITION", "NERVOUS SYSTEM DISORDERS", "MILD", 1.0, "SCREENING 1", -7, "2013-01-22", "", -21], [91, "CDISCPILOT01", "MH", "01-701-1047", 6, "E02", "VERBATIM_1512", "HYPOTHYROIDISM", "HYPOTHYROIDISM", "HLT_0454", "HLGT_0558", "SIGNIFICANT PRE-EXISTING CONDITION", "ENDOCRINE DISORDERS", "MILD", 1.0, "SCREENING 1", -7, "2013-01-22", "", -21], [92, "CDISCPILOT01", "MH", "01-701-1047", 9, "", "VERBATIM_0936", "HYSTERECTOMY", "HYSTERECTOMY", "HLT_0675", "HLGT_0657", "HISTORICAL DIAGNOSIS", "SURGICAL AND MEDICAL PROCEDURES", "", 1.0, "SCREENING 1", -7, "2013-01-22", "1967", -21], [93, "CDISCPILOT01", "MH", "01-701-1047", 4, "E10", "VERBATIM_0918", "EDEMATOUS FEET", "OEDEMA PERIPHERAL", "HLT_0661", "HLGT_0137", "SIGNIFICANT PRE-EXISTING CONDITION", "GENERAL DISORDERS AND ADMINISTRATION SITE CONDITIONS", "MILD", 1.0, "SCREENING 1", -7, "2013-01-22", "", -21], [94, "CDISCPILOT01", "MH", "01-701-1047", 1, "E03", "VERBATIM_0253", "PSORIASIS", "PSORIASIS", "HLT_0740", "HLGT_0038", "SIGNIFICANT PRE-EXISTING CONDITION", "SKIN AND SUBCUTANEOUS TISSUE DISORDERS", "MILD", 1.0, "SCREENING 1", -7, "2013-01-22", "", -21], [95, "CDISCPILOT01", "MH", "01-701-1047", 7, "E05", "VERBATIM_1769", "SINUSITIS", "SINUSITIS", "HLT_0262", "HLGT_0249", "SIGNIFICANT PRE-EXISTING CONDITION", "INFECTIONS AND INFESTATIONS", "MILD", 1.0, "SCREENING 1", -7, "2013-01-22", "", -21], [96, "CDISCPILOT01", "MH", "01-701-1047", 8, "", "VERBATIM_1716", "TONSILLECTOMY", "TONSILLECTOMY", "HLT_0202", "HLGT_0199", "HISTORICAL DIAGNOSIS", "SURGICAL AND MEDICAL PROCEDURES", "", 1.0, "SCREENING 1", -7, "2013-01-22", "1937", -21], [97, "CDISCPILOT01", "MH", "01-701-1047", 10, "", "VERBATIM_1041", "ULCER", "ULCER", "HLT_0040", "HLGT_0245", "HISTORICAL DIAGNOSIS", "GENERAL DISORDERS AND ADMINISTRATION SITE CONDITIONS", "", 1.0, "SCREENING 1", -7, "2013-01-22", "1971", -21], [98, "CDISCPILOT01", "MH", "01-701-1097", 4, "", "ALZHEIMER'S DISEASE", "", "", "", "", "PRIMARY DIAGNOSIS", "", "", 1.0, "SCREENING 1", -7, "2013-12-23", "2005-09-22", -9], [99, "CDISCPILOT01", "MH", "01-701-1097", 6, "", "VERBATIM_0935", "GINGIVAL OPERATION", "GINGIVAL OPERATION", "HLT_0004", "HLGT_0266", "HISTORICAL DIAGNOSIS", "SURGICAL AND MEDICAL PROCEDURES", "", 1.0, "SCREENING 1", -7, "2013-12-23", "2013-04", -9], [100, "CDISCPILOT01", "MH", "01-701-1097", 5, "", "VERBATIM_0663", "GINGIVITIS", "GINGIVITIS", "HLT_0093", "HLGT_0685", "HISTORICAL DIAGNOSIS", "GASTROINTESTINAL DISORDERS", "", 1.0, "SCREENING 1", -7, "2013-12-23", "2013-04", -9], [101, "CDISCPILOT01", "MH", "01-701-1097", 2, "E01", "VERBATIM_0662", "GONARTHRITIS", "MONARTHRITIS", "HLT_0592", "HLGT_0196", "SIGNIFICANT PRE-EXISTING CONDITION", "MUSCULOSKELETAL AND CONNECTIVE TISSUE DISORDERS", "MILD", 1.0, "SCREENING 1", -7, "2013-12-23", "", -9], [102, "CDISCPILOT01", "MH", "01-701-1097", 1, "E02", "VERBATIM_0507", "PRESBYOPIA", "PRESBYOPIA", "HLT_0230", "HLGT_0759", "SIGNIFICANT PRE-EXISTING CONDITION", "EYE DISORDERS", "MILD", 1.0, "SCREENING 1", -7, "2013-12-23", "", -9], [103, "CDISCPILOT01", "MH", "01-701-1097", 3, "E03", "VERBATIM_1769", "SINUSITIS", "SINUSITIS", "HLT_0262", "HLGT_0249", "SIGNIFICANT PRE-EXISTING CONDITION", "INFECTIONS AND INFESTATIONS", "MILD", 1.0, "SCREENING 1", -7, "2013-12-23", "", -9], [104, "CDISCPILOT01", "MH", "01-701-1111", 29, "", "ALZHEIMER'S DISEASE", "", "", "", "", "PRIMARY DIAGNOSIS", "", "", 1.0, "SCREENING 1", -7, "2012-08-25", "2009-04-04", -13], [105, "CDISCPILOT01", "MH", "01-701-1111", 25, "", "VERBATIM_0846", "SKIN TAGS", "ACROCHORDON", "HLT_0622", "HLGT_0452", "HISTORICAL DIAGNOSIS", "NEOPLASMS BENIGN, MALIGNANT AND UNSPECIFIED (INCL CYSTS AND POLYPS)", "", 1.0, "SCREENING 1", -7, "2012-08-25", "2006", -13], [106, "CDISCPILOT01", "MH", "01-701-1111", 14, "", "VERBATIM_1775", "APPENDECTOMY", "APPENDICECTOMY", "HLT_0707", "HLGT_0363", "HISTORICAL DIAGNOSIS", "SURGICAL AND MEDICAL PROCEDURES", "", 1.0, "SCREENING 1", -7, "2012-08-25", "1946", -13], [107, "CDISCPILOT01", "MH", "01-701-1111", 7, "E07", "VERBATIM_1309", "ARTHRITIS", "ARTHRITIS", "HLT_0019", "HLGT_0587", "SIGNIFICANT PRE-EXISTING CONDITION", "MUSCULOSKELETAL AND CONNECTIVE TISSUE DISORDERS", "MILD", 1.0, "SCREENING 1", -7, "2012-08-25", "", -13], [108, "CDISCPILOT01", "MH", "01-701-1111", 10, "E08", "VERBATIM_1583", "BACK PAIN", "BACK PAIN", "HLT_0115", "HLGT_0508", "SIGNIFICANT PRE-EXISTING CONDITION", "MUSCULOSKELETAL AND CONNECTIVE TISSUE DISORDERS", "MILD", 1.0, "SCREENING 1", -7, "2012-08-25", "", -13], [109, "CDISCPILOT01", "MH", "01-701-1111", 27, "", "VERBATIM_0951", "BASAL CELL CARCINOMA", "BASAL CELL CARCINOMA", "HLT_0332", "HLGT_0328", "HISTORICAL DIAGNOSIS", "NEOPLASMS BENIGN, MALIGNANT AND UNSPECIFIED (INCL CYSTS AND POLYPS)", "", 1.0, "SCREENING 1", -7, "2012-08-25", "2007", -13], [110, "CDISCPILOT01", "MH", "01-701-1111", 8, "E10", "VERBATIM_1384", "EYEGLASSES WEARER", "CORRECTIVE LENS USER", "HLT_0776", "HLGT_0407", "SIGNIFICANT PRE-EXISTING CONDITION", "SOCIAL CIRCUMSTANCES", "MILD", 1.0, "SCREENING 1", -7, "2012-08-25", "", -13], [111, "CDISCPILOT01", "MH", "01-701-1111", 24, "", "VERBATIM_0910", "COUGH", "COUGH", "HLT_0701", "HLGT_0280", "HISTORICAL DIAGNOSIS", "RESPIRATORY, THORACIC AND MEDIASTINAL DISORDERS", "", 1.0, "SCREENING 1", -7, "2012-08-25", "2002", -13], [112, "CDISCPILOT01", "MH", "01-701-1111", 23, "", "VERBATIM_0361", "BLADDER INFECTION", "CYSTITIS", "HLT_0739", "HLGT_0129", "HISTORICAL DIAGNOSIS", "INFECTIONS AND INFESTATIONS", "", 1.0, "SCREENING 1", -7, "2012-08-25", "2002", -13], [113, "CDISCPILOT01", "MH", "01-701-1111", 1, "E11", "VERBATIM_0546", "HEARING LOSS", "DEAFNESS", "HLT_0234", "HLGT_0025", "SIGNIFICANT PRE-EXISTING CONDITION", "EAR AND LABYRINTH DISORDERS", "MILD", 1.0, "SCREENING 1", -7, "2012-08-25", "", -13], [114, "CDISCPILOT01", "MH", "01-701-1111", 28, "", "VERBATIM_0702", "EATING DISORDER", "EATING DISORDER", "HLT_0538", "HLGT_0235", "HISTORICAL DIAGNOSIS", "PSYCHIATRIC DISORDERS", "", 1.0, "SCREENING 1", -7, "2012-08-25", "2009", -13], [115, "CDISCPILOT01", "MH", "01-701-1111", 19, "", "VERBATIM_0740", "FOOT FRACTURE", "FOOT FRACTURE", "HLT_0768", "HLGT_0287", "HISTORICAL DIAGNOSIS", "INJURY, POISONING AND PROCEDURAL COMPLICATIONS", "", 1.0, "SCREENING 1", -7, "2012-08-25", "1986", -13], [116, "CDISCPILOT01", "MH", "01-701-1111", 17, "", "VERBATIM_0267", "HEMORRHOIDS", "HAEMORRHOIDS", "HLT_0681", "HLGT_0485", "HISTORICAL DIAGNOSIS", "GASTROINTESTINAL DISORDERS", "", 1.0, "SCREENING 1", -7, "2012-08-25", "1981", -13], [117, "CDISCPILOT01", "MH", "01-701-1111", 2, "E04", "VERBATIM_0699", "HIATAL HERNIA", "HIATUS HERNIA", "HLT_0159", "HLGT_0109", "SIGNIFICANT PRE-EXISTING CONDITION", "GASTROINTESTINAL DISORDERS", "MILD", 1.0, "SCREENING 1", -7, "2012-08-25", "", -13], [118, "CDISCPILOT01", "MH", "01-701-1111", 12, "E01", "VERBATIM_1641", "HYPERTENSION", "HYPERTENSION", "HLT_0228", "HLGT_0476", "SIGNIFICANT PRE-EXISTING CONDITION", "VASCULAR DISORDERS", "MILD", 1.0, "SCREENING 1", -7, "2012-08-25", "", -13], [119, "CDISCPILOT01", "MH", "01-701-1111", 9, "E05", "VERBATIM_1512", "HYPOTHYROIDISM", "HYPOTHYROIDISM", "HLT_0454", "HLGT_0558", "SIGNIFICANT PRE-EXISTING CONDITION", "ENDOCRINE DISORDERS", "MILD", 1.0, "SCREENING 1", -7, "2012-08-25", "", -13], [120, "CDISCPILOT01", "MH", "01-701-1111", 26, "", "VERBATIM_1545", "INCONTINENCE", "INCONTINENCE", "HLT_0560", "HLGT_0503", "HISTORICAL DIAGNOSIS", "RENAL AND URINARY DISORDERS", "", 1.0, "SCREENING 1", -7, "2012-08-25", "2006", -13], [121, "CDISCPILOT01", "MH", "01-701-1111", 6, "E06", "VERBATIM_1224", "LOCALIZED INFECTION", "LOCALISED INFECTION", "HLT_0435", "HLGT_0557", "SIGNIFICANT PRE-EXISTING CONDITION", "INFECTIONS AND INFESTATIONS", "MILD", 1.0, "SCREENING 1", -7, "2012-08-25", "", -13], [122, "CDISCPILOT01", "MH", "01-701-1111", 20, "", "VERBATIM_1261", "KNEE FRACTURE", "LOWER LIMB FRACTURE", "HLT_0348", "HLGT_0435", "HISTORICAL DIAGNOSIS", "INJURY, POISONING AND PROCEDURAL COMPLICATIONS", "", 1.0, "SCREENING 1", -7, "2012-08-25", "1986", -13], [123, "CDISCPILOT01", "MH", "01-701-1111", 30, "", "VERBATIM_0543", "DEGENERATION MACULAR", "MACULAR DEGENERATION", "HLT_0401", "HLGT_0370", "HISTORICAL DIAGNOSIS", "EYE DISORDERS", "", 1.0, "SCREENING 1", -7, "2012-08-25", "2012", -13], [124, "CDISCPILOT01", "MH", "01-701-1111", 3, "E03", "VERBATIM_0835", "ANKLE EDEMA", "OEDEMA PERIPHERAL", "HLT_0661", "HLGT_0137", "SIGNIFICANT PRE-EXISTING CONDITION", "GENERAL DISORDERS AND ADMINISTRATION SITE CONDITIONS", "MILD", 1.0, "SCREENING 1", -7, "2012-08-25", "", -13], [125, "CDISCPILOT01", "MH", "01-701-1111", 5, "E13", "VERBATIM_1201", "OSTEOPOROSIS", "OSTEOPOROSIS", "HLT_0381", "HLGT_0634", "SIGNIFICANT PRE-EXISTING CONDITION", "MUSCULOSKELETAL AND CONNECTIVE TISSUE DISORDERS", "MILD", 1.0, "SCREENING 1", -7, "2012-08-25", "", -13], [126, "CDISCPILOT01", "MH", "01-701-1111", 16, "", "VERBATIM_0250", "RECTAL BLEEDING", "RECTAL HAEMORRHAGE", "HLT_0353", "HLGT_0755", "HISTORICAL DIAGNOSIS", "GASTROINTESTINAL DISORDERS", "", 1.0, "SCREENING 1", -7, "2012-08-25", "1981", -13], [127, "CDISCPILOT01", "MH", "01-701-1111", 22, "", "VERBATIM_1407", "FRACTURED RIBS", "RIB FRACTURE", "HLT_0292", "HLGT_0583", "HISTORICAL DIAGNOSIS", "INJURY, POISONING AND PROCEDURAL COMPLICATIONS", "", 1.0, "SCREENING 1", -7, "2012-08-25", "1986", -13], [128, "CDISCPILOT01", "MH", "01-701-1111", 13, "E09", "VERBATIM_1769", "SINUSITIS", "SINUSITIS", "HLT_0262", "HLGT_0249", "SIGNIFICANT PRE-EXISTING CONDITION", "INFECTIONS AND INFESTATIONS", "MILD", 1.0, "SCREENING 1", -7, "2012-08-25", "", -13], [129, "CDISCPILOT01", "MH", "01-701-1111", 4, "E12", "VERBATIM_1065", "TINNITUS", "TINNITUS", "HLT_0570", "HLGT_0180", "SIGNIFICANT PRE-EXISTING CONDITION", "EAR AND LABYRINTH DISORDERS", "MILD", 1.0, "SCREENING 1", -7, "2012-08-25", "", -13], [130, "CDISCPILOT01", "MH", "01-701-1111", 15, "", "VERBATIM_0526", "TUBERCULOSIS", "TUBERCULOSIS", "HLT_0344", "HLGT_0774", "HISTORICAL DIAGNOSIS", "INFECTIONS AND INFESTATIONS", "", 1.0, "SCREENING 1", -7, "2012-08-25", "1952", -13], [131, "CDISCPILOT01", "MH", "01-701-1111", 21, "", "VERBATIM_1378", "ELBOW FRACTURE", "UPPER LIMB FRACTURE", "HLT_0472", "HLGT_0247", "HISTORICAL DIAGNOSIS", "INJURY, POISONING AND PROCEDURAL COMPLICATIONS", "", 1.0, "SCREENING 1", -7, "2012-08-25", "1986", -13], [132, "CDISCPILOT01", "MH", "01-701-1111", 11, "E02", "VERBATIM_1589", "VARICOSE VEINS", "VARICOSE VEIN", "HLT_0372", "HLGT_0037", "SIGNIFICANT PRE-EXISTING CONDITION", "VASCULAR DISORDERS", "MILD", 1.0, "SCREENING 1", -7, "2012-08-25", "", -13], [133, "CDISCPILOT01", "MH", "01-701-1111", 18, "", "VERBATIM_0063", "WRIST FRACTURE", "WRIST FRACTURE", "HLT_0537", "HLGT_0281", "HISTORICAL DIAGNOSIS", "INJURY, POISONING AND PROCEDURAL COMPLICATIONS", "", 1.0, "SCREENING 1", -7, "2012-08-25", "1986", -13], [134, "CDISCPILOT01", "MH", "01-701-1115", 13, "", "ALZHEIMER'S DISEASE", "", "", "", "", "PRIMARY DIAGNOSIS", "", "", 1.0, "SCREENING 1", -7, "2012-11-23", "2004-05-28", -7], [135, "CDISCPILOT01", "MH", "01-701-1115", 3, "E01", "VERBATIM_0443", "CONSTIPATION", "CONSTIPATION", "HLT_0402", "HLGT_0635", "SIGNIFICANT PRE-EXISTING CONDITION", "GASTROINTESTINAL DISORDERS", "MILD", 1.0, "SCREENING 1", -7, "2012-11-23", "", -7], [136, "CDISCPILOT01", "MH", "01-701-1115", 4, "E05", "VERBATIM_0773", "DENTURE WEARER", "DENTURE WEARER", "HLT_0246", "HLGT_0763", "SIGNIFICANT PRE-EXISTING CONDITION", "SOCIAL CIRCUMSTANCES", "MILD", 1.0, "SCREENING 1", -7, "2012-11-23", "", -7], [137, "CDISCPILOT01", "MH", "01-701-1115", 15, "", "VERBATIM_1533", "DIZZINESS", "DIZZINESS", "HLT_0619", "HLGT_0751", "HISTORICAL DIAGNOSIS", "NERVOUS SYSTEM DISORDERS", "", 1.0, "SCREENING 1", -7, "2012-11-23", "2011", -7], [138, "CDISCPILOT01", "MH", "01-701-1115", 14, "", "VERBATIM_1509", "SHORTNESS OF BREATH", "DYSPNOEA", "HLT_0296", "HLGT_0255", "HISTORICAL DIAGNOSIS", "RESPIRATORY, THORACIC AND MEDIASTINAL DISORDERS", "", 1.0, "SCREENING 1", -7, "2012-11-23", "2011", -7], [139, "CDISCPILOT01", "MH", "01-701-1115", 11, "", "VERBATIM_0714", "SHINGLES", "HERPES ZOSTER", "HLT_0460", "HLGT_0239", "HISTORICAL DIAGNOSIS", "INFECTIONS AND INFESTATIONS", "", 1.0, "SCREENING 1", -7, "2012-11-23", "1986", -7], [140, "CDISCPILOT01", "MH", "01-701-1115", 8, "E04", "VERBATIM_1749", "HYPEROPIA", "HYPERMETROPIA", "HLT_0546", "HLGT_0646", "SIGNIFICANT PRE-EXISTING CONDITION", "EYE DISORDERS", "MILD", 1.0, "SCREENING 1", -7, "2012-11-23", "", -7], [141, "CDISCPILOT01", "MH", "01-701-1115", 5, "E07", "VERBATIM_1179", "URINARY URGENCY", "MICTURITION URGENCY", "HLT_0294", "HLGT_0483", "SIGNIFICANT PRE-EXISTING CONDITION", "RENAL AND URINARY DISORDERS", "MILD", 1.0, "SCREENING 1", -7, "2012-11-23", "", -7], [142, "CDISCPILOT01", "MH", "01-701-1115", 12, "", "VERBATIM_0739", "KIDNEY STONES", "NEPHROLITHIASIS", "HLT_0439", "HLGT_0546", "HISTORICAL DIAGNOSIS", "RENAL AND URINARY DISORDERS", "", 1.0, "SCREENING 1", -7, "2012-11-23", "1998", -7], [143, "CDISCPILOT01", "MH", "01-701-1115", 1, "E06", "VERBATIM_0014", "NOCTURIA", "NOCTURIA", "HLT_0509", "HLGT_0605", "SIGNIFICANT PRE-EXISTING CONDITION", "RENAL AND URINARY DISORDERS", "MILD", 1.0, "SCREENING 1", -7, "2012-11-23", "", -7], [144, "CDISCPILOT01", "MH", "01-701-1115", 10, "", "VERBATIM_0470", "PELVIC FRACTURE", "PELVIC FRACTURE", "HLT_0017", "HLGT_0237", "HISTORICAL DIAGNOSIS", "INJURY, POISONING AND PROCEDURAL COMPLICATIONS", "", 1.0, "SCREENING 1", -7, "2012-11-23", "1983", -7], [145, "CDISCPILOT01", "MH", "01-701-1115", 2, "E08", "VERBATIM_0261", "POLYARTHRITIS", "POLYARTHRITIS", "HLT_0134", "HLGT_0167", "SIGNIFICANT PRE-EXISTING CONDITION", "MUSCULOSKELETAL AND CONNECTIVE TISSUE DISORDERS", "MILD", 1.0, "SCREENING 1", -7, "2012-11-23", "", -7], [146, "CDISCPILOT01", "MH", "01-701-1115", 7, "E03", "VERBATIM_1546", "POLYARTHRITIS", "POLYARTHRITIS", "HLT_0134", "HLGT_0167", "SIGNIFICANT PRE-EXISTING CONDITION", "MUSCULOSKELETAL AND CONNECTIVE TISSUE DISORDERS", "MILD", 1.0, "SCREENING 1", -7, "2012-11-23", "", -7], [147, "CDISCPILOT01", "MH", "01-701-1115", 6, "E02", "VERBATIM_1350", "PROSTATITIS", "PROSTATITIS", "HLT_0749", "HLGT_0104", "SIGNIFICANT PRE-EXISTING CONDITION", "REPRODUCTIVE SYSTEM AND BREAST DISORDERS", "MILD", 1.0, "SCREENING 1", -7, "2012-11-23", "", -7], [148, "CDISCPILOT01", "MH", "01-701-1115", 9, "", "VERBATIM_1716", "TONSILLECTOMY", "TONSILLECTOMY", "HLT_0202", "HLGT_0199", "HISTORICAL DIAGNOSIS", "SURGICAL AND MEDICAL PROCEDURES", "", 1.0, "SCREENING 1", -7, "2012-11-23", "1934", -7], [149, "CDISCPILOT01", "MH", "01-701-1118", 8, "", "ALZHEIMER'S DISEASE", "", "", "", "", "PRIMARY DIAGNOSIS", "", "", 1.0, "SCREENING 1", -7, "2014-02-27", "2010-06-24", -13], [150, "CDISCPILOT01", "MH", "01-701-1118", 3, "E01", "VERBATIM_0800", "INDIGESTION", "DYSPEPSIA", "HLT_0244", "HLGT_0716", "SIGNIFICANT PRE-EXISTING CONDITION", "GASTROINTESTINAL DISORDERS", "MILD", 1.0, "SCREENING 1", -7, "2014-02-27", "", -13], [151, "CDISCPILOT01", "MH", "01-701-1118", 1, "E02", "VERBATIM_0267", "HEMORRHOIDS", "HAEMORRHOIDS", "HLT_0681", "HLGT_0485", "SIGNIFICANT PRE-EXISTING CONDITION", "GASTROINTESTINAL DISORDERS", "MILD", 1.0, "SCREENING 1", -7, "2014-02-27", "", -13], [152, "CDISCPILOT01", "MH", "01-701-1118", 2, "E03", "VERBATIM_0301", "HEADACHE", "HEADACHE", "HLT_0064", "HLGT_0344", "SIGNIFICANT PRE-EXISTING CONDITION", "NERVOUS SYSTEM DISORDERS", "MODERATE", 1.0, "SCREENING 1", -7, "2014-02-27", "", -13], [153, "CDISCPILOT01", "MH", "01-701-1118", 4, "E05", "VERBATIM_1683", "HYPEROPIA", "HYPERMETROPIA", "HLT_0546", "HLGT_0646", "SIGNIFICANT PRE-EXISTING CONDITION", "EYE DISORDERS", "MILD", 1.0, "SCREENING 1", -7, "2014-02-27", "", -13], [154, "CDISCPILOT01", "MH", "01-701-1118", 6, "", "VERBATIM_1514", "PNEUMOTHORAX", "PNEUMOTHORAX", "HLT_0580", "HLGT_0057", "HISTORICAL DIAGNOSIS", "RESPIRATORY, THORACIC AND MEDIASTINAL DISORDERS", "", 1.0, "SCREENING 1", -7, "2014-02-27", "1988", -13], [155, "CDISCPILOT01", "MH", "01-701-1118", 5, "E04", "VERBATIM_1769", "SINUSITIS", "SINUSITIS", "HLT_0262", "HLGT_0249", "SIGNIFICANT PRE-EXISTING CONDITION", "INFECTIONS AND INFESTATIONS", "MILD", 1.0, "SCREENING 1", -7, "2014-02-27", "", -13], [156, "CDISCPILOT01", "MH", "01-701-1118", 7, "", "VERBATIM_1371", "WRIST FRACTURE", "WRIST FRACTURE", "HLT_0537", "HLGT_0281", "HISTORICAL DIAGNOSIS", "INJURY, POISONING AND PROCEDURAL COMPLICATIONS", "", 1.0, "SCREENING 1", -7, "2014-02-27", "1991", -13], [157, "CDISCPILOT01", "MH", "01-701-1130", 13, "", "ALZHEIMER'S DISEASE", "", "", "", "", "PRIMARY DIAGNOSIS", "", "", 1.0, "SCREENING 1", -7, "2014-02-09", "2010-05-22", -6], [158, "CDISCPILOT01", "MH", "01-701-1130", 5, "E05", "VERBATIM_1751", "ASTIGMATISM", "ASTIGMATISM", "HLT_0494", "HLGT_0369", "SIGNIFICANT PRE-EXISTING CONDITION", "EYE DISORDERS", "MILD", 1.0, "SCREENING 1", -7, "2014-02-09", "", -6], [159, "CDISCPILOT01", "MH", "01-701-1130", 1, "E03", "VERBATIM_0025", "HEARING LOSS UNILATERAL", "DEAFNESS UNILATERAL", "HLT_0521", "HLGT_0683", "SIGNIFICANT PRE-EXISTING CONDITION", "EAR AND LABYRINTH DISORDERS", "MILD", 1.0, "SCREENING 1", -7, "2014-02-09", "", -6], [160, "CDISCPILOT01", "MH", "01-701-1130", 2, "E04", "VERBATIM_0773", "DENTURE WEARER", "DENTURE WEARER", "HLT_0246", "HLGT_0763", "SIGNIFICANT PRE-EXISTING CONDITION", "SOCIAL CIRCUMSTANCES", "MILD", 1.0, "SCREENING 1", -7, "2014-02-09", "", -6], [161, "CDISCPILOT01", "MH", "01-701-1130", 4, "E02", "VERBATIM_1454", "DRY SKIN", "DRY SKIN", "HLT_0028", "HLGT_0096", "SIGNIFICANT PRE-EXISTING CONDITION", "SKIN AND SUBCUTANEOUS TISSUE DISORDERS", "MILD", 1.0, "SCREENING 1", -7, "2014-02-09", "", -6], [162, "CDISCPILOT01", "MH", "01-701-1130", 7, "", "VERBATIM_0329", "FEMUR FRACTURE", "FEMUR FRACTURE", "HLT_0349", "HLGT_0542", "HISTORICAL DIAGNOSIS", "INJURY, POISONING AND PROCEDURAL COMPLICATIONS", "", 1.0, "SCREENING 1", -7, "2014-02-09", "1977", -6], [163, "CDISCPILOT01", "MH", "01-701-1130", 9, "", "VERBATIM_0267", "HEMORRHOIDS", "HAEMORRHOIDS", "HLT_0681", "HLGT_0485", "HISTORICAL DIAGNOSIS", "GASTROINTESTINAL DISORDERS", "", 1.0, "SCREENING 1", -7, "2014-02-09", "1987", -6], [164, "CDISCPILOT01", "MH", "01-701-1130", 14, "", "VERBATIM_0448", "OTITIS EXTERNA", "OTITIS EXTERNA", "HLT_0673", "HLGT_0404", "HISTORICAL DIAGNOSIS", "INFECTIONS AND INFESTATIONS", "", 1.0, "SCREENING 1", -7, "2014-02-09", "2012-10", -6], [165, "CDISCPILOT01", "MH", "01-701-1130", 3, "E01", "VERBATIM_1446", "TINGLING", "PARAESTHESIA", "HLT_0481", "HLGT_0534", "SIGNIFICANT PRE-EXISTING CONDITION", "NERVOUS SYSTEM DISORDERS", "MILD", 1.0, "SCREENING 1", -7, "2014-02-09", "", -6], [166, "CDISCPILOT01", "MH", "01-701-1130", 8, "", "VERBATIM_0919", "PNEUMONIA", "PNEUMONIA", "HLT_0251", "HLGT_0671", "HISTORICAL DIAGNOSIS", "INFECTIONS AND INFESTATIONS", "", 1.0, "SCREENING 1", -7, "2014-02-09", "1984", -6], [167, "CDISCPILOT01", "MH", "01-701-1130", 10, "", "VERBATIM_0919", "PNEUMONIA", "PNEUMONIA", "HLT_0251", "HLGT_0671", "HISTORICAL DIAGNOSIS", "INFECTIONS AND INFESTATIONS", "", 1.0, "SCREENING 1", -7, "2014-02-09", "1989", -6], [168, "CDISCPILOT01", "MH", "01-701-1130", 12, "", "VERBATIM_0154", "PROSTATE CANCER", "PROSTATE CANCER", "HLT_0412", "HLGT_0190", "HISTORICAL DIAGNOSIS", "NEOPLASMS BENIGN, MALIGNANT AND UNSPECIFIED (INCL CYSTS AND POLYPS)", "", 1.0, "SCREENING 1", -7, "2014-02-09", "2000", -6], [169, "CDISCPILOT01", "MH", "01-701-1130", 11, "", "VERBATIM_0055", "PROSTATECTOMY", "PROSTATECTOMY", "HLT_0532", "HLGT_0559", "HISTORICAL DIAGNOSIS", "SURGICAL AND MEDICAL PROCEDURES", "", 1.0, "SCREENING 1", -7, "2014-02-09", "2000", -6], [170, "CDISCPILOT01", "MH", "01-701-1130", 15, "", "VERBATIM_0463", "LACERATION OF ARM", "SKIN LACERATION", "HLT_0075", "HLGT_0118", "HISTORICAL DIAGNOSIS", "INJURY, POISONING AND PROCEDURAL COMPLICATIONS", "", 1.0, "SCREENING 1", -7, "2014-02-09", "2014-01-15", -6], [171, "CDISCPILOT01", "MH", "01-701-1130", 6, "", "VERBATIM_1716", "TONSILLECTOMY", "TONSILLECTOMY", "HLT_0202", "HLGT_0199", "HISTORICAL DIAGNOSIS", "SURGICAL AND MEDICAL PROCEDURES", "", 1.0, "SCREENING 1", -7, "2014-02-09", "1939", -6], [172, "CDISCPILOT01", "MH", "01-701-1133", 11, "", "ALZHEIMER'S DISEASE", "", "", "", "", "PRIMARY DIAGNOSIS", "", "", 1.0, "SCREENING 1", -7, "2012-10-23", "2010-03-11", -5], [173, "CDISCPILOT01", "MH", "01-701-1133", 7, "", "VERBATIM_0517", "CHEST PAIN", "CHEST PAIN", "HLT_0717", "HLGT_0195", "HISTORICAL DIAGNOSIS", "GENERAL DISORDERS AND ADMINISTRATION SITE CONDITIONS", "", 1.0, "SCREENING 1", -7, "2012-10-23", "1986", -5], [174, "CDISCPILOT01", "MH", "01-701-1133", 3, "E03", "VERBATIM_1796", "DENTURE WEARER", "DENTURE WEARER", "HLT_0246", "HLGT_0763", "SIGNIFICANT PRE-EXISTING CONDITION", "SOCIAL CIRCUMSTANCES", "MILD", 1.0, "SCREENING 1", -7, "2012-10-23", "", -5], [175, "CDISCPILOT01", "MH", "01-701-1133", 8, "", "VERBATIM_1023", "DIVERTICULOSIS", "DIVERTICULUM", "HLT_0069", "HLGT_0141", "HISTORICAL DIAGNOSIS", "GASTROINTESTINAL DISORDERS", "", 1.0, "SCREENING 1", -7, "2012-10-23", "2000", -5], [176, "CDISCPILOT01", "MH", "01-701-1133", 9, "", "VERBATIM_0267", "HEMORRHOIDS", "HAEMORRHOIDS", "HLT_0681", "HLGT_0485", "HISTORICAL DIAGNOSIS", "GASTROINTESTINAL DISORDERS", "", 1.0, "SCREENING 1", -7, "2012-10-23", "2003", -5], [177, "CDISCPILOT01", "MH", "01-701-1133", 2, "E02", "VERBATIM_1683", "HYPEROPIA", "HYPERMETROPIA", "HLT_0546", "HLGT_0646", "SIGNIFICANT PRE-EXISTING CONDITION", "EYE DISORDERS", "MILD", 1.0, "SCREENING 1", -7, "2012-10-23", "", -5], [178, "CDISCPILOT01", "MH", "01-701-1133", 6, "", "VERBATIM_0342", "HYPERTENSION", "HYPERTENSION", "HLT_0228", "HLGT_0476", "HISTORICAL DIAGNOSIS", "VASCULAR DISORDERS", "", 1.0, "SCREENING 1", -7, "2012-10-23", "1986", -5], [179, "CDISCPILOT01", "MH", "01-701-1133", 10, "", "VERBATIM_0009", "KNEE TOTAL REPLACEMENT", "KNEE ARTHROPLASTY", "HLT_0710", "HLGT_0078", "HISTORICAL DIAGNOSIS", "SURGICAL AND MEDICAL PROCEDURES", "", 1.0, "SCREENING 1", -7, "2012-10-23", "2009-12", -5], [180, "CDISCPILOT01", "MH", "01-701-1133", 1, "E01", "VERBATIM_1121", "POLYARTHRITIS", "POLYARTHRITIS", "HLT_0134", "HLGT_0167", "SIGNIFICANT PRE-EXISTING CONDITION", "MUSCULOSKELETAL AND CONNECTIVE TISSUE DISORDERS", "MILD", 1.0, "SCREENING 1", -7, "2012-10-23", "", -5], [181, "CDISCPILOT01", "MH", "01-701-1133", 4, "", "VERBATIM_1716", "TONSILLECTOMY", "TONSILLECTOMY", "HLT_0202", "HLGT_0199", "HISTORICAL DIAGNOSIS", "SURGICAL AND MEDICAL PROCEDURES", "", 1.0, "SCREENING 1", -7, "2012-10-23", "1939", -5], [182, "CDISCPILOT01", "MH", "01-701-1133", 5, "", "VERBATIM_0293", "WEIGHT LOSS", "WEIGHT DECREASED", "HLT_0158", "HLGT_0778", "HISTORICAL DIAGNOSIS", "INVESTIGATIONS", "", 1.0, "SCREENING 1", -7, "2012-10-23", "1966", -5], [183, "CDISCPILOT01", "MH", "01-701-1146", 11, "", "ALZHEIMER'S DISEASE", "", "", "", "", "PRIMARY DIAGNOSIS", "", "", 1.0, "SCREENING 1", -7, "2013-05-07", "2009-11-17", -13], [184, "CDISCPILOT01", "MH", "01-701-1146", 15, "", "VERBATIM_0821", "ABDOMINAL DISCOMFORT", "ABDOMINAL DISCOMFORT", "HLT_0012", "HLGT_0332", "HISTORICAL DIAGNOSIS", "GASTROINTESTINAL DISORDERS", "", 1.0, "SCREENING 1", -7, "2013-05-07", "2012-07-06", -13], [185, "CDISCPILOT01", "MH", "01-701-1146", 7, "E03", "VERBATIM_1441", "KNEE PAIN", "ARTHRALGIA", "HLT_0375", "HLGT_0610", "SIGNIFICANT PRE-EXISTING CONDITION", "MUSCULOSKELETAL AND CONNECTIVE TISSUE DISORDERS", "MILD", 1.0, "SCREENING 1", -7, "2013-05-07", "", -13], [186, "CDISCPILOT01", "MH", "01-701-1146", 10, "", "VERBATIM_0815", "BLADDER PROLAPSE", "BLADDER PROLAPSE", "HLT_0502", "HLGT_0048", "HISTORICAL DIAGNOSIS", "RENAL AND URINARY DISORDERS", "", 1.0, "SCREENING 1", -7, "2013-05-07", "2006", -13], [187, "CDISCPILOT01", "MH", "01-701-1146", 13, "", "VERBATIM_0815", "BLADDER PROLAPSE", "BLADDER PROLAPSE", "HLT_0502", "HLGT_0048", "HISTORICAL DIAGNOSIS", "RENAL AND URINARY DISORDERS", "", 1.0, "SCREENING 1", -7, "2013-05-07", "2012", -13], [188, "CDISCPILOT01", "MH", "01-701-1146", 5, "E08", "VERBATIM_1223", "HEART MURMUR", "CARDIAC MURMUR", "HLT_0085", "HLGT_0133", "SIGNIFICANT PRE-EXISTING CONDITION", "INVESTIGATIONS", "MILD", 1.0, "SCREENING 1", -7, "2013-05-07", "", -13], [189, "CDISCPILOT01", "MH", "01-701-1146", 14, "", "VERBATIM_0517", "CHEST PAIN", "CHEST PAIN", "HLT_0717", "HLGT_0195", "HISTORICAL DIAGNOSIS", "GENERAL DISORDERS AND ADMINISTRATION SITE CONDITIONS", "", 1.0, "SCREENING 1", -7, "2013-05-07", "2012-03-27", -13], [190, "CDISCPILOT01", "MH", "01-701-1146", 3, "E01", "VERBATIM_0443", "CONSTIPATION", "CONSTIPATION", "HLT_0402", "HLGT_0635", "SIGNIFICANT PRE-EXISTING CONDITION", "GASTROINTESTINAL DISORDERS", "MILD", 1.0, "SCREENING 1", -7, "2013-05-07", "", -13], [191, "CDISCPILOT01", "MH", "01-701-1146", 17, "", "VERBATIM_0361", "BLADDER INFECTION", "CYSTITIS", "HLT_0739", "HLGT_0129", "HISTORICAL DIAGNOSIS", "INFECTIONS AND INFESTATIONS", "", 1.0, "SCREENING 1", -7, "2013-05-07", "2012-10-27", -13], [192, "CDISCPILOT01", "MH", "01-701-1146", 2, "E05", "VERBATIM_0391", "HEARING LOSS", "DEAFNESS", "HLT_0234", "HLGT_0025", "SIGNIFICANT PRE-EXISTING CONDITION", "EAR AND LABYRINTH DISORDERS", "MILD", 1.0, "SCREENING 1", -7, "2013-05-07", "", -13], [193, "CDISCPILOT01", "MH", "01-701-1146", 6, "E06", "VERBATIM_1376", "DEPRESSION", "DEPRESSION", "HLT_0167", "HLGT_0582", "SIGNIFICANT PRE-EXISTING CONDITION", "PSYCHIATRIC DISORDERS", "MILD", 1.0, "SCREENING 1", -7, "2013-05-07", "", -13], [194, "CDISCPILOT01", "MH", "01-701-1146", 4, "E07", "VERBATIM_1126", "DIARRHEA", "DIARRHOEA", "HLT_0148", "HLGT_0588", "SIGNIFICANT PRE-EXISTING CONDITION", "GASTROINTESTINAL DISORDERS", "MILD", 1.0, "SCREENING 1", -7, "2013-05-07", "", -13], [195, "CDISCPILOT01", "MH", "01-701-1146", 16, "", "VERBATIM_1066", "ROOT CANAL PROCEDURE", "ENDODONTIC PROCEDURE", "HLT_0153", "HLGT_0539", "HISTORICAL DIAGNOSIS", "SURGICAL AND MEDICAL PROCEDURES", "", 1.0, "SCREENING 1", -7, "2013-05-07", "2012-09-12", -13], [196, "CDISCPILOT01", "MH", "01-701-1146", 12, "", "VERBATIM_1117", "ESOPHAGEAL SPASM", "OESOPHAGEAL SPASM", "HLT_0112", "HLGT_0697", "HISTORICAL DIAGNOSIS", "GASTROINTESTINAL DISORDERS", "", 1.0, "SCREENING 1", -7, "2013-05-07", "2011", -13], [197, "CDISCPILOT01", "MH", "01-701-1146", 1, "E02", "VERBATIM_0325", "POLYARTHRITIS", "POLYARTHRITIS", "HLT_0134", "HLGT_0167", "SIGNIFICANT PRE-EXISTING CONDITION", "MUSCULOSKELETAL AND CONNECTIVE TISSUE DISORDERS", "MILD", 1.0, "SCREENING 1", -7, "2013-05-07", "", -13], [198, "CDISCPILOT01", "MH", "01-701-1146", 8, "E04", "VERBATIM_1769", "SINUSITIS", "SINUSITIS", "HLT_0262", "HLGT_0249", "SIGNIFICANT PRE-EXISTING CONDITION", "INFECTIONS AND INFESTATIONS", "MILD", 1.0, "SCREENING 1", -7, "2013-05-07", "", -13], [199, "CDISCPILOT01", "MH", "01-701-1146", 9, "", "VERBATIM_1716", "TONSILLECTOMY", "TONSILLECTOMY", "HLT_0202", "HLGT_0199", "HISTORICAL DIAGNOSIS", "SURGICAL AND MEDICAL PROCEDURES", "", 1.0, "SCREENING 1", -7, "2013-05-07", "1942", -13], [200, "CDISCPILOT01", "MH", "01-701-1148", 29, "", "ALZHEIMER'S DISEASE", "", "", "", "", "PRIMARY DIAGNOSIS", "", "", 1.0, "SCREENING 1", -7, "2013-08-14", "2010-12-12", -9], [201, "CDISCPILOT01", "MH", "01-701-1148", 30, "", "VERBATIM_1160", "ACTINIC KERATOSIS", "ACTINIC KERATOSIS", "HLT_0609", "HLGT_0490", "HISTORICAL DIAGNOSIS", "SKIN AND SUBCUTANEOUS TISSUE DISORDERS", "", 1.0, "SCREENING 1", -7, "2013-08-14", "2011", -9], [202, "CDISCPILOT01", "MH", "01-701-1148", 23, "", "VERBATIM_0598", "ANAL FISTULA", "ANAL FISTULA", "HLT_0653", "HLGT_0268", "HISTORICAL DIAGNOSIS", "GASTROINTESTINAL DISORDERS", "", 1.0, "SCREENING 1", -7, "2013-08-14", "1989", -9], [203, "CDISCPILOT01", "MH", "01-701-1148", 27, "", "VERBATIM_0598", "ANAL FISTULA", "ANAL FISTULA", "HLT_0653", "HLGT_0268", "HISTORICAL DIAGNOSIS", "GASTROINTESTINAL DISORDERS", "", 1.0, "SCREENING 1", -7, "2013-08-14", "2007", -9], [204, "CDISCPILOT01", "MH", "01-701-1148", 22, "", "VERBATIM_0146", "ANKLE FRACTURE", "ANKLE FRACTURE", "HLT_0208", "HLGT_0252", "HISTORICAL DIAGNOSIS", "INJURY, POISONING AND PROCEDURAL COMPLICATIONS", "", 1.0, "SCREENING 1", -7, "2013-08-14", "1985", -9], [205, "CDISCPILOT01", "MH", "01-701-1148", 20, "E18", "VERBATIM_1751", "ASTIGMATISM", "ASTIGMATISM", "HLT_0494", "HLGT_0369", "SIGNIFICANT PRE-EXISTING CONDITION", "EYE DISORDERS", "MILD", 1.0, "SCREENING 1", -7, "2013-08-14", "", -9], [206, "CDISCPILOT01", "MH", "01-701-1148", 19, "E10", "VERBATIM_1583", "BACK PAIN", "BACK PAIN", "HLT_0115", "HLGT_0508", "SIGNIFICANT PRE-EXISTING CONDITION", "MUSCULOSKELETAL AND CONNECTIVE TISSUE DISORDERS", "MILD", 1.0, "SCREENING 1", -7, "2013-08-14", "", -9], [207, "CDISCPILOT01", "MH", "01-701-1148", 24, "", "VERBATIM_0305", "BREAST LUMP REMOVAL", "BREAST LUMP REMOVAL", "HLT_0100", "HLGT_0742", "HISTORICAL DIAGNOSIS", "SURGICAL AND MEDICAL PROCEDURES", "", 1.0, "SCREENING 1", -7, "2013-08-14", "1991", -9], [208, "CDISCPILOT01", "MH", "01-701-1148", 11, "E14", "VERBATIM_0978", "HEARING LOSS BILATERAL", "DEAFNESS BILATERAL", "HLT_0567", "HLGT_0426", "SIGNIFICANT PRE-EXISTING CONDITION", "EAR AND LABYRINTH DISORDERS", "MILD", 1.0, "SCREENING 1", -7, "2013-08-14", "", -9], [209, "CDISCPILOT01", "MH", "01-701-1148", 8, "E26", "VERBATIM_0591", "DEPRESSED MOOD", "DEPRESSED MOOD", "HLT_0784", "HLGT_0122", "SIGNIFICANT PRE-EXISTING CONDITION", "PSYCHIATRIC DISORDERS", "MILD", 1.0, "SCREENING 1", -7, "2013-08-14", "", -9], [210, "CDISCPILOT01", "MH", "01-701-1148", 12, "E19", "VERBATIM_0982", "FELT FAINT", "DIZZINESS", "HLT_0619", "HLGT_0751", "SIGNIFICANT PRE-EXISTING CONDITION", "NERVOUS SYSTEM DISORDERS", "MILD", 1.0, "SCREENING 1", -7, "2013-08-14", "", -9], [211, "CDISCPILOT01", "MH", "01-701-1148", 17, "E08", "VERBATIM_1533", "DIZZINESS", "DIZZINESS", "HLT_0619", "HLGT_0751", "SIGNIFICANT PRE-EXISTING CONDITION", "NERVOUS SYSTEM DISORDERS", "MILD", 1.0, "SCREENING 1", -7, "2013-08-14", "", -9], [212, "CDISCPILOT01", "MH", "01-701-1148", 10, "E03", "VERBATIM_0800", "INDIGESTION", "DYSPEPSIA", "HLT_0244", "HLGT_0716", "SIGNIFICANT PRE-EXISTING CONDITION", "GASTROINTESTINAL DISORDERS", "MILD", 1.0, "SCREENING 1", -7, "2013-08-14", "", -9], [213, "CDISCPILOT01", "MH", "01-701-1148", 16, "E02", "VERBATIM_1509", "SHORTNESS OF BREATH", "DYSPNOEA", "HLT_0296", "HLGT_0255", "SIGNIFICANT PRE-EXISTING CONDITION", "RESPIRATORY, THORACIC AND MEDIASTINAL DISORDERS", "MILD", 1.0, "SCREENING 1", -7, "2013-08-14", "", -9], [214, "CDISCPILOT01", "MH", "01-701-1148", 3, "E04", "VERBATIM_0301", "HEADACHE", "HEADACHE", "HLT_0064", "HLGT_0344", "SIGNIFICANT PRE-EXISTING CONDITION", "NERVOUS SYSTEM DISORDERS", "MILD", 1.0, "SCREENING 1", -7, "2013-08-14", "", -9], [215, "CDISCPILOT01", "MH", "01-701-1148", 4, "E07", "VERBATIM_0383", "NUMBNESS IN SHOULDER", "HYPOAESTHESIA", "HLT_0014", "HLGT_0528", "SIGNIFICANT PRE-EXISTING CONDITION", "NERVOUS SYSTEM DISORDERS", "MILD", 1.0, "SCREENING 1", -7, "2013-08-14", "", -9], [216, "CDISCPILOT01", "MH", "01-701-1148", 9, "E06", "VERBATIM_0617", "NUMBNESS IN FINGERS", "HYPOAESTHESIA", "HLT_0014", "HLGT_0528", "SIGNIFICANT PRE-EXISTING CONDITION", "NERVOUS SYSTEM DISORDERS", "MILD", 1.0, "SCREENING 1", -7, "2013-08-14", "", -9], [217, "CDISCPILOT01", "MH", "01-701-1148", 18, "E05", "VERBATIM_1576", "NUMBNESS OF UPPER ARM", "HYPOAESTHESIA", "HLT_0014", "HLGT_0528", "SIGNIFICANT PRE-EXISTING CONDITION", "NERVOUS SYSTEM DISORDERS", "MILD", 1.0, "SCREENING 1", -7, "2013-08-14", "", -9], [218, "CDISCPILOT01", "MH", "01-701-1148", 7, "E11", "VERBATIM_0461", "MUSCULAR PAIN", "MYALGIA", "HLT_0700", "HLGT_0121", "SIGNIFICANT PRE-EXISTING CONDITION", "MUSCULOSKELETAL AND CONNECTIVE TISSUE DISORDERS", "MILD", 1.0, "SCREENING 1", -7, "2013-08-14", "", -9], [219, "CDISCPILOT01", "MH", "01-701-1148", 13, "E15", "VERBATIM_1073", "MUSCULAR PAIN", "MYALGIA", "HLT_0700", "HLGT_0121", "SIGNIFICANT PRE-EXISTING CONDITION", "MUSCULOSKELETAL AND CONNECTIVE TISSUE DISORDERS", "MILD", 1.0, "SCREENING 1", -7, "2013-08-14", "", -9], [220, "CDISCPILOT01", "MH", "01-701-1148", 6, "E16", "VERBATIM_0453", "NERVE PAIN", "NEURALGIA", "HLT_0486", "HLGT_0172", "SIGNIFICANT PRE-EXISTING CONDITION", "NERVOUS SYSTEM DISORDERS", "MILD", 1.0, "SCREENING 1", -7, "2013-08-14", "", -9], [221, "CDISCPILOT01", "MH", "01-701-1148", 15, "E12", "VERBATIM_1213", "NERVE PAIN", "NEURALGIA", "HLT_0486", "HLGT_0172", "SIGNIFICANT PRE-EXISTING CONDITION", "NERVOUS SYSTEM DISORDERS", "MILD", 1.0, "SCREENING 1", -7, "2013-08-14", "", -9], [222, "CDISCPILOT01", "MH", "01-701-1148", 2, "E01", "VERBATIM_0266", "PALPITATIONS", "PALPITATIONS", "HLT_0493", "HLGT_0593", "SIGNIFICANT PRE-EXISTING CONDITION", "CARDIAC DISORDERS", "MILD", 1.0, "SCREENING 1", -7, "2013-08-14", "", -9], [223, "CDISCPILOT01", "MH", "01-701-1148", 14, "E09", "VERBATIM_1168", "POLYARTHRITIS", "POLYARTHRITIS", "HLT_0134", "HLGT_0167", "SIGNIFICANT PRE-EXISTING CONDITION", "MUSCULOSKELETAL AND CONNECTIVE TISSUE DISORDERS", "MILD", 1.0, "SCREENING 1", -7, "2013-08-14", "", -9], [224, "CDISCPILOT01", "MH", "01-701-1148", 5, "E22", "VERBATIM_0396", "HAY FEVER", "SEASONAL ALLERGY", "HLT_0714", "HLGT_0782", "SIGNIFICANT PRE-EXISTING CONDITION", "IMMUNE SYSTEM DISORDERS", "MILD", 1.0, "SCREENING 1", -7, "2013-08-14", "", -9], [225, "CDISCPILOT01", "MH", "01-701-1148", 28, "", "VERBATIM_0807", "SINUS OPERATION", "SINUS OPERATION", "HLT_0259", "HLGT_0573", "HISTORICAL DIAGNOSIS", "SURGICAL AND MEDICAL PROCEDURES", "", 1.0, "SCREENING 1", -7, "2013-08-14", "2010", -9], [226, "CDISCPILOT01", "MH", "01-701-1148", 21, "E13", "VERBATIM_1769", "SINUSITIS", "SINUSITIS", "HLT_0262", "HLGT_0249", "SIGNIFICANT PRE-EXISTING CONDITION", "INFECTIONS AND INFESTATIONS", "MILD", 1.0, "SCREENING 1", -7, "2013-08-14", "", -9], [227, "CDISCPILOT01", "MH", "01-701-1148", 26, "", "VERBATIM_1550", "SKIN GRAFT", "SKIN GRAFT", "HLT_0392", "HLGT_0390", "HISTORICAL DIAGNOSIS", "SURGICAL AND MEDICAL PROCEDURES", "", 1.0, "SCREENING 1", -7, "2013-08-14", "1996", -9], [228, "CDISCPILOT01", "MH", "01-701-1148", 25, "", "VERBATIM_0036", "BURN", "THERMAL BURN", "HLT_0092", "HLGT_0447", "HISTORICAL DIAGNOSIS", "INJURY, POISONING AND PROCEDURAL COMPLICATIONS", "", 1.0, "SCREENING 1", -7, "2013-08-14", "1996", -9], [229, "CDISCPILOT01", "MH", "01-701-1148", 1, "E17", "VERBATIM_0047", "TINNITUS", "TINNITUS", "HLT_0570", "HLGT_0180", "SIGNIFICANT PRE-EXISTING CONDITION", "EAR AND LABYRINTH DISORDERS", "MILD", 1.0, "SCREENING 1", -7, "2013-08-14", "", -9], [230, "CDISCPILOT01", "MH", "01-701-1153", 7, "", "ALZHEIMER'S DISEASE", "", "", "", "", "PRIMARY DIAGNOSIS", "", "", 1.0, "SCREENING 1", -7, "2013-09-06", "2005-05-13", -17], [231, "CDISCPILOT01", "MH", "01-701-1153", 6, "", "VERBATIM_0120", "ANEMIA", "ANAEMIA", "HLT_0378", "HLGT_0230", "HISTORICAL DIAGNOSIS", "BLOOD AND LYMPHATIC SYSTEM DISORDERS", "", 1.0, "SCREENING 1", -7, "2013-09-06", "1977", -17], [232, "CDISCPILOT01", "MH", "01-701-1153", 5, "E05", "VERBATIM_1751", "ASTIGMATISM", "ASTIGMATISM", "HLT_0494", "HLGT_0369", "SIGNIFICANT PRE-EXISTING CONDITION", "EYE DISORDERS", "MILD", 1.0, "SCREENING 1", -7, "2013-09-06", "", -17], [233, "CDISCPILOT01", "MH", "01-701-1153", 1, "E02", "VERBATIM_0301", "HEADACHE", "HEADACHE", "HLT_0064", "HLGT_0344", "SIGNIFICANT PRE-EXISTING CONDITION", "NERVOUS SYSTEM DISORDERS", "MILD", 1.0, "SCREENING 1", -7, "2013-09-06", "", -17], [234, "CDISCPILOT01", "MH", "01-701-1153", 2, "E03", "VERBATIM_0390", "INCREASED TENDENCY TO BRUISE", "INCREASED TENDENCY TO BRUISE", "HLT_0359", "HLGT_0091", "SIGNIFICANT PRE-EXISTING CONDITION", "SKIN AND SUBCUTANEOUS TISSUE DISORDERS", "MILD", 1.0, "SCREENING 1", -7, "2013-09-06", "", -17], [235, "CDISCPILOT01", "MH", "01-701-1153", 4, "E04", "VERBATIM_1443", "NECK PAIN", "NECK PAIN", "HLT_0203", "HLGT_0367", "SIGNIFICANT PRE-EXISTING CONDITION", "MUSCULOSKELETAL AND CONNECTIVE TISSUE DISORDERS", "MILD", 1.0, "SCREENING 1", -7, "2013-09-06", "", -17], [236, "CDISCPILOT01", "MH", "01-701-1153", 3, "E01", "VERBATIM_0705", "ANKLE EDEMA", "OEDEMA PERIPHERAL", "HLT_0661", "HLGT_0137", "SIGNIFICANT PRE-EXISTING CONDITION", "GENERAL DISORDERS AND ADMINISTRATION SITE CONDITIONS", "MILD", 1.0, "SCREENING 1", -7, "2013-09-06", "", -17], [237, "CDISCPILOT01", "MH", "01-701-1153", 10, "", "VERBATIM_1769", "SINUSITIS", "SINUSITIS", "HLT_0262", "HLGT_0249", "HISTORICAL DIAGNOSIS", "INFECTIONS AND INFESTATIONS", "", 1.0, "SCREENING 1", -7, "2013-09-06", "2011", -17], [238, "CDISCPILOT01", "MH", "01-701-1153", 9, "", "VERBATIM_0688", "CARCINOMA SKIN", "SKIN CANCER", "HLT_0382", "HLGT_0439", "HISTORICAL DIAGNOSIS", "NEOPLASMS BENIGN, MALIGNANT AND UNSPECIFIED (INCL CYSTS AND POLYPS)", "", 1.0, "SCREENING 1", -7, "2013-09-06", "2010", -17], [239, "CDISCPILOT01", "MH", "01-701-1153", 8, "", "VERBATIM_0239", "SKIN NEOPLASM EXCISION", "SKIN NEOPLASM EXCISION", "HLT_0482", "HLGT_0467", "HISTORICAL DIAGNOSIS", "SURGICAL AND MEDICAL PROCEDURES", "", 1.0, "SCREENING 1", -7, "2013-09-06", "2010", -17], [240, "CDISCPILOT01", "MH", "01-701-1180", 2, "", "ALZHEIMER'S DISEASE", "", "", "", "", "PRIMARY DIAGNOSIS", "", "", 1.0, "SCREENING 1", -7, "2013-01-28", "2008-09-21", -15], [241, "CDISCPILOT01", "MH", "01-701-1180", 1, "E04", "VERBATIM_0929", "HEADACHE", "HEADACHE", "HLT_0064", "HLGT_0344", "SIGNIFICANT PRE-EXISTING CONDITION", "NERVOUS SYSTEM DISORDERS", "MILD", 1.0, "SCREENING 1", -7, "2013-01-28", "", -15], [242, "CDISCPILOT01", "MH", "01-701-1181", 22, "", "ALZHEIMER'S DISEASE", "", "", "", "", "PRIMARY DIAGNOSIS", "", "", 1.0, "SCREENING 1", -7, "2013-11-26", "2008-08-26", -9], [243, "CDISCPILOT01", "MH", "01-701-1181", 8, "E11", "VERBATIM_0733", "KNEE PAIN", "ARTHRALGIA", "HLT_0375", "HLGT_0610", "SIGNIFICANT PRE-EXISTING CONDITION", "MUSCULOSKELETAL AND CONNECTIVE TISSUE DISORDERS", "MILD", 1.0, "SCREENING 1", -7, "2013-11-26", "", -9], [244, "CDISCPILOT01", "MH", "01-701-1181", 13, "E10", "VERBATIM_1327", "PAIN IN HIP", "ARTHRALGIA", "HLT_0375", "HLGT_0610", "SIGNIFICANT PRE-EXISTING CONDITION", "MUSCULOSKELETAL AND CONNECTIVE TISSUE DISORDERS", "MILD", 1.0, "SCREENING 1", -7, "2013-11-26", "", -9], [245, "CDISCPILOT01", "MH", "01-701-1181", 23, "", "VERBATIM_1176", "BRONCHITIS", "BRONCHITIS", "HLT_0634", "HLGT_0523", "HISTORICAL DIAGNOSIS", "INFECTIONS AND INFESTATIONS", "", 1.0, "SCREENING 1", -7, "2013-11-26", "2009", -9], [246, "CDISCPILOT01", "MH", "01-701-1181", 15, "E03", "VERBATIM_1644", "NOCTURNAL CONFUSION", "CONFUSIONAL STATE", "HLT_0642", "HLGT_0329", "SIGNIFICANT PRE-EXISTING CONDITION", "PSYCHIATRIC DISORDERS", "MILD", 1.0, "SCREENING 1", -7, "2013-11-26", "", -9], [247, "CDISCPILOT01", "MH", "01-701-1181", 24, "", "VERBATIM_0303", "COUGH INCREASED", "COUGH", "HLT_0701", "HLGT_0280", "HISTORICAL DIAGNOSIS", "RESPIRATORY, THORACIC AND MEDIASTINAL DISORDERS", "", 1.0, "SCREENING 1", -7, "2013-11-26", "2012-06-08", -9], [248, "CDISCPILOT01", "MH", "01-701-1181", 11, "E13", "VERBATIM_0978", "HEARING LOSS BILATERAL", "DEAFNESS BILATERAL", "HLT_0567", "HLGT_0426", "SIGNIFICANT PRE-EXISTING CONDITION", "EAR AND LABYRINTH DISORDERS", "MILD", 1.0, "SCREENING 1", -7, "2013-11-26", "", -9], [249, "CDISCPILOT01", "MH", "01-701-1181", 7, "E15", "VERBATIM_0686", "DENTURE WEARER", "DENTURE WEARER", "HLT_0246", "HLGT_0763", "SIGNIFICANT PRE-EXISTING CONDITION", "SOCIAL CIRCUMSTANCES", "MILD", 1.0, "SCREENING 1", -7, "2013-11-26", "", -9], [250, "CDISCPILOT01", "MH", "01-701-1181", 14, "E02", "VERBATIM_1533", "DIZZINESS", "DIZZINESS", "HLT_0619", "HLGT_0751", "SIGNIFICANT PRE-EXISTING CONDITION", "NERVOUS SYSTEM DISORDERS", "MILD", 1.0, "SCREENING 1", -7, "2013-11-26", "", -9], [251, "CDISCPILOT01", "MH", "01-701-1181", 3, "E07", "VERBATIM_0462", "FINGER AMPUTATION", "FINGER AMPUTATION", "HLT_0746", "HLGT_0244", "SIGNIFICANT PRE-EXISTING CONDITION", "SURGICAL AND MEDICAL PROCEDURES", "MILD", 1.0, "SCREENING 1", -7, "2013-11-26", "", -9], [252, "CDISCPILOT01", "MH", "01-701-1181", 10, "E06", "VERBATIM_0966", "FINGER DEFORMITY", "FINGER DEFORMITY", "HLT_0600", "HLGT_0600", "SIGNIFICANT PRE-EXISTING CONDITION", "MUSCULOSKELETAL AND CONNECTIVE TISSUE DISORDERS", "MILD", 1.0, "SCREENING 1", -7, "2013-11-26", "", -9], [253, "CDISCPILOT01", "MH", "01-701-1181", 21, "", "VERBATIM_1143", "HEAD INJURY", "HEAD INJURY", "HLT_0201", "HLGT_0554", "HISTORICAL DIAGNOSIS", "INJURY, POISONING AND PROCEDURAL COMPLICATIONS", "", 1.0, "SCREENING 1", -7, "2013-11-26", "2006", -9], [254, "CDISCPILOT01", "MH", "01-701-1181", 9, "E01", "VERBATIM_0929", "HEADACHE", "HEADACHE", "HLT_0064", "HLGT_0344", "SIGNIFICANT PRE-EXISTING CONDITION", "NERVOUS SYSTEM DISORDERS", "MILD", 1.0, "SCREENING 1", -7, "2013-11-26", "", -9], [255, "CDISCPILOT01", "MH", "01-701-1181", 17, "", "VERBATIM_0167", "TOTAL HYSTERECTOMY", "HYSTERECTOMY", "HLT_0675", "HLGT_0657", "HISTORICAL DIAGNOSIS", "SURGICAL AND MEDICAL PROCEDURES", "", 1.0, "SCREENING 1", -7, "2013-11-26", "1967", -9], [256, "CDISCPILOT01", "MH", "01-701-1181", 20, "", "VERBATIM_0192", "ANKLE INJURY", "JOINT INJURY", "HLT_0264", "HLGT_0127", "HISTORICAL DIAGNOSIS", "INJURY, POISONING AND PROCEDURAL COMPLICATIONS", "", 1.0, "SCREENING 1", -7, "2013-11-26", "2006", -9], [257, "CDISCPILOT01", "MH", "01-701-1181", 5, "E17", "VERBATIM_0640", "ANKLE EDEMA", "OEDEMA PERIPHERAL", "HLT_0661", "HLGT_0137", "SIGNIFICANT PRE-EXISTING CONDITION", "GENERAL DISORDERS AND ADMINISTRATION SITE CONDITIONS", "MILD", 1.0, "SCREENING 1", -7, "2013-11-26", "", -9], [258, "CDISCPILOT01", "MH", "01-701-1181", 1, "E05", "VERBATIM_0048", "PAIN TRAUMA ACTIVATED", "PAIN TRAUMA ACTIVATED", "HLT_0579", "HLGT_0732", "SIGNIFICANT PRE-EXISTING CONDITION", "INJURY, POISONING AND PROCEDURAL COMPLICATIONS", "MILD", 1.0, "SCREENING 1", -7, "2013-11-26", "", -9], [259, "CDISCPILOT01", "MH", "01-701-1181", 2, "E04", "VERBATIM_0062", "PAIN TRAUMA ACTIVATED", "PAIN TRAUMA ACTIVATED", "HLT_0579", "HLGT_0732", "SIGNIFICANT PRE-EXISTING CONDITION", "INJURY, POISONING AND PROCEDURAL COMPLICATIONS", "MILD", 1.0, "SCREENING 1", -7, "2013-11-26", "", -9], [260, "CDISCPILOT01", "MH", "01-701-1181", 19, "", "VERBATIM_0124", "WALKING PNEUMONIA", "PNEUMONIA PRIMARY ATYPICAL", "HLT_0364", "HLGT_0065", "HISTORICAL DIAGNOSIS", "INFECTIONS AND INFESTATIONS", "", 1.0, "SCREENING 1", -7, "2013-11-26", "1989", -9], [261, "CDISCPILOT01", "MH", "01-701-1181", 4, "E14", "VERBATIM_0507", "PRESBYOPIA", "PRESBYOPIA", "HLT_0230", "HLGT_0759", "SIGNIFICANT PRE-EXISTING CONDITION", "EYE DISORDERS", "MILD", 1.0, "SCREENING 1", -7, "2013-11-26", "", -9], [262, "CDISCPILOT01", "MH", "01-701-1181", 6, "E09", "VERBATIM_0671", "SHOULDER PAIN", "SHOULDER PAIN", "HLT_0527", "HLGT_0288", "SIGNIFICANT PRE-EXISTING CONDITION", "MUSCULOSKELETAL AND CONNECTIVE TISSUE DISORDERS", "MILD", 1.0, "SCREENING 1", -7, "2013-11-26", "", -9], [263, "CDISCPILOT01", "MH", "01-701-1181", 12, "E08", "VERBATIM_1215", "BONE INJURY", "SKELETAL INJURY", "HLT_0679", "HLGT_0099", "SIGNIFICANT PRE-EXISTING CONDITION", "INJURY, POISONING AND PROCEDURAL COMPLICATIONS", "MILD", 1.0, "SCREENING 1", -7, "2013-11-26", "", -9], [264, "CDISCPILOT01", "MH", "01-701-1181", 16, "", "VERBATIM_1716", "TONSILLECTOMY", "TONSILLECTOMY", "HLT_0202", "HLGT_0199", "HISTORICAL DIAGNOSIS", "SURGICAL AND MEDICAL PROCEDURES", "", 1.0, "SCREENING 1", -7, "2013-11-26", "1940", -9], [265, "CDISCPILOT01", "MH", "01-701-1181", 18, "", "VERBATIM_0204", "TOOTH EXTRACTION", "TOOTH EXTRACTION", "HLT_0209", "HLGT_0762", "HISTORICAL DIAGNOSIS", "SURGICAL AND MEDICAL PROCEDURES", "", 1.0, "SCREENING 1", -7, "2013-11-26", "1980", -9], [266, "CDISCPILOT01", "MH", "01-701-1188", 9, "", "ALZHEIMER'S DISEASE", "", "", "", "", "PRIMARY DIAGNOSIS", "", "", 1.0, "SCREENING 1", -7, "2013-02-03", "2005-09-14", -12], [267, "CDISCPILOT01", "MH", "01-701-1188", 6, "", "VERBATIM_0138", "BENIGN PROSTATIC HYPERTROPHY", "BENIGN PROSTATIC HYPERPLASIA", "HLT_0215", "HLGT_0568", "HISTORICAL DIAGNOSIS", "REPRODUCTIVE SYSTEM AND BREAST DISORDERS", "", 1.0, "SCREENING 1", -7, "2013-02-03", "1996", -12], [268, "CDISCPILOT01", "MH", "01-701-1188", 3, "E01", "VERBATIM_1279", "DRY SKIN", "DRY SKIN", "HLT_0028", "HLGT_0096", "SIGNIFICANT PRE-EXISTING CONDITION", "SKIN AND SUBCUTANEOUS TISSUE DISORDERS", "MILD", 1.0, "SCREENING 1", -7, "2013-02-03", "", -12], [269, "CDISCPILOT01", "MH", "01-701-1188", 1, "E02", "VERBATIM_0101", "GANGLION", "GANGLION", "HLT_0674", "HLGT_0046", "SIGNIFICANT PRE-EXISTING CONDITION", "MUSCULOSKELETAL AND CONNECTIVE TISSUE DISORDERS", "MILD", 1.0, "SCREENING 1", -7, "2013-02-03", "", -12], [270, "CDISCPILOT01", "MH", "01-701-1188", 8, "", "VERBATIM_0080", "HEADACHE", "HEADACHE", "HLT_0064", "HLGT_0344", "HISTORICAL DIAGNOSIS", "NERVOUS SYSTEM DISORDERS", "", 1.0, "SCREENING 1", -7, "2013-02-03", "2001", -12], [271, "CDISCPILOT01", "MH", "01-701-1188", 10, "", "VERBATIM_1230", "SORE THROAT", "PHARYNGOLARYNGEAL PAIN", "HLT_0130", "HLGT_0402", "HISTORICAL DIAGNOSIS", "RESPIRATORY, THORACIC AND MEDIASTINAL DISORDERS", "", 1.0, "SCREENING 1", -7, "2013-02-03", "2011-06-08", -12], [272, "CDISCPILOT01", "MH", "01-701-1188", 2, "E03", "VERBATIM_0507", "PRESBYOPIA", "PRESBYOPIA", "HLT_0230", "HLGT_0759", "SIGNIFICANT PRE-EXISTING CONDITION", "EYE DISORDERS", "MILD", 1.0, "SCREENING 1", -7, "2013-02-03", "", -12], [273, "CDISCPILOT01", "MH", "01-701-1188", 7, "", "VERBATIM_1363", "PROSTATIC OPERATION", "PROSTATIC OPERATION", "HLT_0385", "HLGT_0342", "HISTORICAL DIAGNOSIS", "SURGICAL AND MEDICAL PROCEDURES", "", 1.0, "SCREENING 1", -7, "2013-02-03", "1996", -12], [274, "CDISCPILOT01", "MH", "01-701-1188", 5, "", "VERBATIM_1733", "ALLERGIC URTICARIA", "URTICARIA", "HLT_0420", "HLGT_0705", "HISTORICAL DIAGNOSIS", "SKIN AND SUBCUTANEOUS TISSUE DISORDERS", "", 1.0, "SCREENING 1", -7, "2013-02-03", "1991", -12], [275, "CDISCPILOT01", "MH", "01-701-1188", 4, "", "VERBATIM_1729", "WISDOM TEETH REMOVAL", "WISDOM TEETH REMOVAL", "HLT_0442", "HLGT_0679", "HISTORICAL DIAGNOSIS", "SURGICAL AND MEDICAL PROCEDURES", "", 1.0, "SCREENING 1", -7, "2013-02-03", "1964", -12], [276, "CDISCPILOT01", "MH", "01-701-1192", 15, "", "ALZHEIMER'S DISEASE", "", "", "", "", "PRIMARY DIAGNOSIS", "", "", 1.0, "SCREENING 1", -7, "2012-07-08", "2009-03-15", -14], [277, "CDISCPILOT01", "MH", "01-701-1192", 9, "", "VERBATIM_0435", "ABORTION", "ABORTION", "HLT_0624", "HLGT_0366", "HISTORICAL DIAGNOSIS", "PREGNANCY, PUERPERIUM AND PERINATAL CONDITIONS", "", 1.0, "SCREENING 1", -7, "2012-07-08", "1946", -14], [278, "CDISCPILOT01", "MH", "01-701-1192", 3, "E03", "VERBATIM_1309", "ARTHRITIS", "ARTHRITIS", "HLT_0019", "HLGT_0587", "SIGNIFICANT PRE-EXISTING CONDITION", "MUSCULOSKELETAL AND CONNECTIVE TISSUE DISORDERS", "MILD", 1.0, "SCREENING 1", -7, "2012-07-08", "", -14], [279, "CDISCPILOT01", "MH", "01-701-1192", 21, "", "VERBATIM_1176", "BRONCHITIS", "BRONCHITIS", "HLT_0634", "HLGT_0523", "HISTORICAL DIAGNOSIS", "INFECTIONS AND INFESTATIONS", "", 1.0, "SCREENING 1", -7, "2012-07-08", "2010-09", -14], [280, "CDISCPILOT01", "MH", "01-701-1192", 4, "E01", "VERBATIM_1421", "COUGH", "COUGH", "HLT_0701", "HLGT_0280", "SIGNIFICANT PRE-EXISTING CONDITION", "RESPIRATORY, THORACIC AND MEDIASTINAL DISORDERS", "MILD", 1.0, "SCREENING 1", -7, "2012-07-08", "", -14], [281, "CDISCPILOT01", "MH", "01-701-1192", 18, "", "VERBATIM_0576", "CYST", "CYST", "HLT_0763", "HLGT_0341", "HISTORICAL DIAGNOSIS", "GENERAL DISORDERS AND ADMINISTRATION SITE CONDITIONS", "", 1.0, "SCREENING 1", -7, "2012-07-08", "2010-04-22", -14], [282, "CDISCPILOT01", "MH", "01-701-1192", 7, "E04", "VERBATIM_1677", "HEARING LOSS BILATERAL", "DEAFNESS BILATERAL", "HLT_0567", "HLGT_0426", "SIGNIFICANT PRE-EXISTING CONDITION", "EAR AND LABYRINTH DISORDERS", "MILD", 1.0, "SCREENING 1", -7, "2012-07-08", "", -14], [283, "CDISCPILOT01", "MH", "01-701-1192", 22, "", "VERBATIM_1533", "DIZZINESS", "DIZZINESS", "HLT_0619", "HLGT_0751", "HISTORICAL DIAGNOSIS", "NERVOUS SYSTEM DISORDERS", "", 1.0, "SCREENING 1", -7, "2012-07-08", "2011-01", -14], [284, "CDISCPILOT01", "MH", "01-701-1192", 12, "", "VERBATIM_0721", "DUODENAL ULCER", "DUODENAL ULCER", "HLT_0322", "HLGT_0349", "HISTORICAL DIAGNOSIS", "GASTROINTESTINAL DISORDERS", "", 1.0, "SCREENING 1", -7, "2012-07-08", "1966", -14], [285, "CDISCPILOT01", "MH", "01-701-1192", 5, "E02", "VERBATIM_1432", "THYROID ENLARGED", "GOITRE", "HLT_0573", "HLGT_0499", "SIGNIFICANT PRE-EXISTING CONDITION", "ENDOCRINE DISORDERS", "MODERATE", 1.0, "SCREENING 1", -7, "2012-07-08", "", -14], [286, "CDISCPILOT01", "MH", "01-701-1192", 10, "", "VERBATIM_1475", "GONORRHEA", "GONORRHOEA", "HLT_0638", "HLGT_0171", "HISTORICAL DIAGNOSIS", "INFECTIONS AND INFESTATIONS", "", 1.0, "SCREENING 1", -7, "2012-07-08", "1946", -14], [287, "CDISCPILOT01", "MH", "01-701-1192", 11, "", "VERBATIM_0301", "HEADACHE", "HEADACHE", "HLT_0064", "HLGT_0344", "HISTORICAL DIAGNOSIS", "NERVOUS SYSTEM DISORDERS", "", 1.0, "SCREENING 1", -7, "2012-07-08", "1966", -14], [288, "CDISCPILOT01", "MH", "01-701-1192", 13, "", "VERBATIM_1436", "HIP REPLACEMENT", "HIP ARTHROPLASTY", "HLT_0709", "HLGT_0449", "HISTORICAL DIAGNOSIS", "SURGICAL AND MEDICAL PROCEDURES", "", 1.0, "SCREENING 1", -7, "2012-07-08", "2000", -14], [289, "CDISCPILOT01", "MH", "01-701-1192", 6, "E07", "VERBATIM_1674", "DELAYED HEALING OF WOUND", "IMPAIRED HEALING", "HLT_0424", "HLGT_0459", "SIGNIFICANT PRE-EXISTING CONDITION", "GENERAL DISORDERS AND ADMINISTRATION SITE CONDITIONS", "MILD", 1.0, "SCREENING 1", -7, "2012-07-08", "", -14], [290, "CDISCPILOT01", "MH", "01-701-1192", 16, "", "VERBATIM_1562", "MALAISE", "MALAISE", "HLT_0456", "HLGT_0178", "HISTORICAL DIAGNOSIS", "GENERAL DISORDERS AND ADMINISTRATION SITE CONDITIONS", "", 1.0, "SCREENING 1", -7, "2012-07-08", "2009-04", -14], [291, "CDISCPILOT01", "MH", "01-701-1192", 2, "E15", "VERBATIM_0908", "INFERIOR MYOCARDIAL INFARCTION", "MYOCARDIAL INFARCTION", "HLT_0649", "HLGT_0688", "SIGNIFICANT PRE-EXISTING CONDITION", "CARDIAC DISORDERS", "MILD", 1.0, "SCREENING 1", -7, "2012-07-08", "", -14], [292, "CDISCPILOT01", "MH", "01-701-1192", 19, "", "VERBATIM_1391", "NASAL CYST REMOVAL", "NASAL CYST REMOVAL", "HLT_0086", "HLGT_0082", "HISTORICAL DIAGNOSIS", "SURGICAL AND MEDICAL PROCEDURES", "", 1.0, "SCREENING 1", -7, "2012-07-08", "2010-04-22", -14], [293, "CDISCPILOT01", "MH", "01-701-1192", 1, "E05", "VERBATIM_0507", "PRESBYOPIA", "PRESBYOPIA", "HLT_0230", "HLGT_0759", "SIGNIFICANT PRE-EXISTING CONDITION", "EYE DISORDERS", "MILD", 1.0, "SCREENING 1", -7, "2012-07-08", "", -14], [294, "CDISCPILOT01", "MH", "01-701-1192", 8, "", "VERBATIM_1716", "TONSILLECTOMY", "TONSILLECTOMY", "HLT_0202", "HLGT_0199", "HISTORICAL DIAGNOSIS", "SURGICAL AND MEDICAL PROCEDURES", "", 1.0, "SCREENING 1", -7, "2012-07-08", "1944", -14], [295, "CDISCPILOT01", "MH", "01-701-1192", 20, "", "VERBATIM_0579", "UPPER RESPIRATORY INFECTION", "UPPER RESPIRATORY TRACT INFECTION", "HLT_0520", "HLGT_0489", "HISTORICAL DIAGNOSIS", "INFECTIONS AND INFESTATIONS", "", 1.0, "SCREENING 1", -7, "2012-07-08", "2010-09", -14], [296, "CDISCPILOT01", "MH", "01-701-1192", 17, "", "VERBATIM_1703", "VERTIGO", "VERTIGO", "HLT_0255", "HLGT_0147", "HISTORICAL DIAGNOSIS", "EAR AND LABYRINTH DISORDERS", "", 1.0, "SCREENING 1", -7, "2012-07-08", "2009-04", -14], [297, "CDISCPILOT01", "MH", "01-701-1203", 10, "", "ALZHEIMER'S DISEASE", "", "", "", "", "PRIMARY DIAGNOSIS", "", "", 1.0, "SCREENING 1", -7, "2013-01-25", "2011-04-19", -8], [298, "CDISCPILOT01", "MH", "01-701-1203", 1, "E02", "VERBATIM_0287", "KNEE PAIN", "ARTHRALGIA", "HLT_0375", "HLGT_0610", "SIGNIFICANT PRE-EXISTING CONDITION", "MUSCULOSKELETAL AND CONNECTIVE TISSUE DISORDERS", "MILD", 1.0, "SCREENING 1", -7, "2013-01-25", "", -8], [299, "CDISCPILOT01", "MH", "01-701-1203", 7, "", "VERBATIM_1506", "BREAST CANCER", "BREAST CANCER", "HLT_0101", "HLGT_0442", "HISTORICAL DIAGNOSIS", "NEOPLASMS BENIGN, MALIGNANT AND UNSPECIFIED (INCL CYSTS AND POLYPS)", "", 1.0, "SCREENING 1", -7, "2013-01-25", "1972", -8], [300, "CDISCPILOT01", "MH", "01-701-1203", 2, "E03", "VERBATIM_0308", "GLAUCOMA", "GLAUCOMA", "HLT_0556", "HLGT_0734", "SIGNIFICANT PRE-EXISTING CONDITION", "EYE DISORDERS", "MODERATE", 1.0, "SCREENING 1", -7, "2013-01-25", "", -8], [301, "CDISCPILOT01", "MH", "01-701-1203", 8, "", "VERBATIM_1484", "HYPERTHYROIDISM", "HYPERTHYROIDISM", "HLT_0441", "HLGT_0736", "HISTORICAL DIAGNOSIS", "ENDOCRINE DISORDERS", "", 1.0, "SCREENING 1", -7, "2013-01-25", "1991", -8], [302, "CDISCPILOT01", "MH", "01-701-1203", 5, "", "VERBATIM_0682", "TOTAL HYSTERECTOMY", "HYSTERECTOMY", "HLT_0675", "HLGT_0657", "HISTORICAL DIAGNOSIS", "SURGICAL AND MEDICAL PROCEDURES", "", 1.0, "SCREENING 1", -7, "2013-01-25", "1971", -8], [303, "CDISCPILOT01", "MH", "01-701-1203", 9, "", "VERBATIM_1487", "KNEE TOTAL REPLACEMENT", "KNEE ARTHROPLASTY", "HLT_0710", "HLGT_0078", "HISTORICAL DIAGNOSIS", "SURGICAL AND MEDICAL PROCEDURES", "", 1.0, "SCREENING 1", -7, "2013-01-25", "2008", -8], [304, "CDISCPILOT01", "MH", "01-701-1203", 4, "E01", "VERBATIM_1491", "POLYARTHRITIS", "POLYARTHRITIS", "HLT_0134", "HLGT_0167", "SIGNIFICANT PRE-EXISTING CONDITION", "MUSCULOSKELETAL AND CONNECTIVE TISSUE DISORDERS", "MODERATE", 1.0, "SCREENING 1", -7, "2013-01-25", "", -8], [305, "CDISCPILOT01", "MH", "01-701-1203", 3, "E04", "VERBATIM_0507", "PRESBYOPIA", "PRESBYOPIA", "HLT_0230", "HLGT_0759", "SIGNIFICANT PRE-EXISTING CONDITION", "EYE DISORDERS", "MODERATE", 1.0, "SCREENING 1", -7, "2013-01-25", "", -8], [306, "CDISCPILOT01", "MH", "01-701-1203", 6, "", "VERBATIM_0606", "MASTECTOMY RADICAL", "RADICAL MASTECTOMY", "HLT_0697", "HLGT_0545", "HISTORICAL DIAGNOSIS", "SURGICAL AND MEDICAL PROCEDURES", "", 1.0, "SCREENING 1", -7, "2013-01-25", "1972", -8], [307, "CDISCPILOT01", "MH", "01-701-1211", 8, "", "ALZHEIMER'S DISEASE", "", "", "", "", "PRIMARY DIAGNOSIS", "", "", 1.0, "SCREENING 1", -7, "2012-10-30", "2010-03-19", -16], [308, "CDISCPILOT01", "MH", "01-701-1211", 1, "E02", "VERBATIM_0200", "DENTURE WEARER", "DENTURE WEARER", "HLT_0246", "HLGT_0763", "SIGNIFICANT PRE-EXISTING CONDITION", "SOCIAL CIRCUMSTANCES", "MILD", 1.0, "SCREENING 1", -7, "2012-10-30", "", -16], [309, "CDISCPILOT01", "MH", "01-701-1211", 4, "E01", "VERBATIM_1573", "NON-INSULIN-DEPENDENT DIABETES MELLITUS", "DIABETES MELLITUS NON-INSULIN-DEPENDENT", "HLT_0706", "HLGT_0092", "SIGNIFICANT PRE-EXISTING CONDITION", "METABOLISM AND NUTRITION DISORDERS", "MILD", 1.0, "SCREENING 1", -7, "2012-10-30", "", -16], [310, "CDISCPILOT01", "MH", "01-701-1211", 3, "E10", "VERBATIM_1126", "DIARRHEA", "DIARRHOEA", "HLT_0148", "HLGT_0588", "SIGNIFICANT PRE-EXISTING CONDITION", "GASTROINTESTINAL DISORDERS", "MILD", 1.0, "SCREENING 1", -7, "2012-10-30", "", -16], [311, "CDISCPILOT01", "MH", "01-701-1211", 6, "", "VERBATIM_0936", "HYSTERECTOMY", "HYSTERECTOMY", "HLT_0675", "HLGT_0657", "HISTORICAL DIAGNOSIS", "SURGICAL AND MEDICAL PROCEDURES", "", 1.0, "SCREENING 1", -7, "2012-10-30", "1971", -16], [312, "CDISCPILOT01", "MH", "01-701-1211", 7, "", "VERBATIM_1498", "LENS IMPLANT", "LENS IMPLANT", "HLT_0106", "HLGT_0204", "HISTORICAL DIAGNOSIS", "SURGICAL AND MEDICAL PROCEDURES", "", 1.0, "SCREENING 1", -7, "2012-10-30", "1996", -16], [313, "CDISCPILOT01", "MH", "01-701-1211", 9, "", "VERBATIM_0859", "LEG INJURY", "LIMB INJURY", "HLT_0476", "HLGT_0667", "HISTORICAL DIAGNOSIS", "INJURY, POISONING AND PROCEDURAL COMPLICATIONS", "", 1.0, "SCREENING 1", -7, "2012-10-30", "2011", -16], [314, "CDISCPILOT01", "MH", "01-701-1211", 10, "", "VERBATIM_0948", "LEG ULCER (EXCL VARICOSE)", "SKIN ULCER", "HLT_0005", "HLGT_0017", "HISTORICAL DIAGNOSIS", "SKIN AND SUBCUTANEOUS TISSUE DISORDERS", "", 1.0, "SCREENING 1", -7, "2012-10-30", "2011", -16], [315, "CDISCPILOT01", "MH", "01-701-1211", 2, "E07", "VERBATIM_0713", "NOISES IN HEAD", "TINNITUS", "HLT_0570", "HLGT_0180", "SIGNIFICANT PRE-EXISTING CONDITION", "EAR AND LABYRINTH DISORDERS", "MILD", 1.0, "SCREENING 1", -7, "2012-10-30", "", -16], [316, "CDISCPILOT01", "MH", "01-701-1211", 5, "", "VERBATIM_1716", "TONSILLECTOMY", "TONSILLECTOMY", "HLT_0202", "HLGT_0199", "HISTORICAL DIAGNOSIS", "SURGICAL AND MEDICAL PROCEDURES", "", 1.0, "SCREENING 1", -7, "2012-10-30", "1946", -16], [317, "CDISCPILOT01", "MH", "01-701-1234", 12, "", "ALZHEIMER'S DISEASE", "", "", "", "", "PRIMARY DIAGNOSIS", "", "", 1.0, "SCREENING 1", -7, "2013-03-20", "2006-08-11", -10], [318, "CDISCPILOT01", "MH", "01-701-1234", 3, "", "VERBATIM_1775", "APPENDECTOMY", "APPENDICECTOMY", "HLT_0707", "HLGT_0363", "HISTORICAL DIAGNOSIS", "SURGICAL AND MEDICAL PROCEDURES", "", 1.0, "SCREENING 1", -7, "2013-03-20", "1949", -10], [319, "CDISCPILOT01", "MH", "01-701-1234", 10, "", "VERBATIM_0747", "CATARACT OPERATION", "CATARACT OPERATION", "HLT_0432", "HLGT_0058", "HISTORICAL DIAGNOSIS", "SURGICAL AND MEDICAL PROCEDURES", "", 1.0, "SCREENING 1", -7, "2013-03-20", "2002", -10], [320, "CDISCPILOT01", "MH", "01-701-1234", 11, "", "VERBATIM_0881", "CATARACT OPERATION", "CATARACT OPERATION", "HLT_0432", "HLGT_0058", "HISTORICAL DIAGNOSIS", "SURGICAL AND MEDICAL PROCEDURES", "", 1.0, "SCREENING 1", -7, "2013-03-20", "2004", -10], [321, "CDISCPILOT01", "MH", "01-701-1234", 14, "", "VERBATIM_1323", "DETACHED RETINA REPAIR", "DETACHED RETINA REPAIR", "HLT_0345", "HLGT_0473", "HISTORICAL DIAGNOSIS", "SURGICAL AND MEDICAL PROCEDURES", "", 1.0, "SCREENING 1", -7, "2013-03-20", "2009", -10], [322, "CDISCPILOT01", "MH", "01-701-1234", 15, "", "VERBATIM_0164", "HYPERCHOLESTEROLEMIA", "HYPERCHOLESTEROLAEMIA", "HLT_0025", "HLGT_0703", "HISTORICAL DIAGNOSIS", "METABOLISM AND NUTRITION DISORDERS", "", 1.0, "SCREENING 1", -7, "2013-03-20", "2013-03-20", -10], [323, "CDISCPILOT01", "MH", "01-701-1234", 9, "", "VERBATIM_0638", "INGUINAL HERNIA REPAIR", "INGUINAL HERNIA REPAIR", "HLT_0320", "HLGT_0772", "HISTORICAL DIAGNOSIS", "SURGICAL AND MEDICAL PROCEDURES", "", 1.0, "SCREENING 1", -7, "2013-03-20", "2001", -10], [324, "CDISCPILOT01", "MH", "01-701-1234", 6, "", "VERBATIM_0071", "SHOULDER OSTEOARTHRITIS", "OSTEOARTHRITIS", "HLT_0247", "HLGT_0462", "HISTORICAL DIAGNOSIS", "MUSCULOSKELETAL AND CONNECTIVE TISSUE DISORDERS", "", 1.0, "SCREENING 1", -7, "2013-03-20", "2000", -10], [325, "CDISCPILOT01", "MH", "01-701-1234", 1, "E01", "VERBATIM_0507", "PRESBYOPIA", "PRESBYOPIA", "HLT_0230", "HLGT_0759", "SIGNIFICANT PRE-EXISTING CONDITION", "EYE DISORDERS", "MILD", 1.0, "SCREENING 1", -7, "2013-03-20", "", -10], [326, "CDISCPILOT01", "MH", "01-701-1234", 13, "", "VERBATIM_1078", "DETACHED RETINA", "RETINAL DETACHMENT", "HLT_0490", "HLGT_0223", "HISTORICAL DIAGNOSIS", "EYE DISORDERS", "", 1.0, "SCREENING 1", -7, "2013-03-20", "2009", -10], [327, "CDISCPILOT01", "MH", "01-701-1234", 5, "", "VERBATIM_0500", "ACROMIOPLASTY", "SHOULDER ARTHROPLASTY", "HLT_0406", "HLGT_0756", "HISTORICAL DIAGNOSIS", "SURGICAL AND MEDICAL PROCEDURES", "", 1.0, "SCREENING 1", -7, "2013-03-20", "1999", -10], [328, "CDISCPILOT01", "MH", "01-701-1234", 7, "", "VERBATIM_0500", "ACROMIOPLASTY", "SHOULDER ARTHROPLASTY", "HLT_0406", "HLGT_0756", "HISTORICAL DIAGNOSIS", "SURGICAL AND MEDICAL PROCEDURES", "", 1.0, "SCREENING 1", -7, "2013-03-20", "2000", -10], [329, "CDISCPILOT01", "MH", "01-701-1234", 4, "", "VERBATIM_0357", "TENDON REPAIR", "TENDON REPAIR", "HLT_0434", "HLGT_0246", "HISTORICAL DIAGNOSIS", "SURGICAL AND MEDICAL PROCEDURES", "", 1.0, "SCREENING 1", -7, "2013-03-20", "1994", -10], [330, "CDISCPILOT01", "MH", "01-701-1234", 2, "", "VERBATIM_1716", "TONSILLECTOMY", "TONSILLECTOMY", "HLT_0202", "HLGT_0199", "HISTORICAL DIAGNOSIS", "SURGICAL AND MEDICAL PROCEDURES", "", 1.0, "SCREENING 1", -7, "2013-03-20", "1949", -10], [331, "CDISCPILOT01", "MH", "01-701-1234", 8, "", "VERBATIM_0177", "UMBILICAL HERNIA REPAIR", "UMBILICAL HERNIA REPAIR", "HLT_0278", "HLGT_0377", "HISTORICAL DIAGNOSIS", "SURGICAL AND MEDICAL PROCEDURES", "", 1.0, "SCREENING 1", -7, "2013-03-20", "2001", -10], [332, "CDISCPILOT01", "MH", "01-701-1239", 12, "", "ALZHEIMER'S DISEASE", "", "", "", "", "PRIMARY DIAGNOSIS", "", "", 1.0, "SCREENING 1", -7, "2013-12-28", "2003-09-23", -14], [333, "CDISCPILOT01", "MH", "01-701-1239", 5, "E10", "VERBATIM_1197", "HAIR LOSS", "ALOPECIA", "HLT_0077", "HLGT_0234", "SIGNIFICANT PRE-EXISTING CONDITION", "SKIN AND SUBCUTANEOUS TISSUE DISORDERS", "MILD", 1.0, "SCREENING 1", -7, "2013-12-28", "", -14], [334, "CDISCPILOT01", "MH", "01-701-1239", 11, "", "VERBATIM_1775", "APPENDECTOMY", "APPENDICECTOMY", "HLT_0707", "HLGT_0363", "HISTORICAL DIAGNOSIS", "SURGICAL AND MEDICAL PROCEDURES", "", 1.0, "SCREENING 1", -7, "2013-12-28", "1980", -14], [335, "CDISCPILOT01", "MH", "01-701-1239", 13, "", "VERBATIM_0189", "CHEST PAIN", "CHEST PAIN", "HLT_0717", "HLGT_0195", "HISTORICAL DIAGNOSIS", "GENERAL DISORDERS AND ADMINISTRATION SITE CONDITIONS", "", 1.0, "SCREENING 1", -7, "2013-12-28", "2006", -14], [336, "CDISCPILOT01", "MH", "01-701-1239", 1, "E07", "VERBATIM_0391", "HEARING LOSS", "DEAFNESS", "HLT_0234", "HLGT_0025", "SIGNIFICANT PRE-EXISTING CONDITION", "EAR AND LABYRINTH DISORDERS", "MILD", 1.0, "SCREENING 1", -7, "2013-12-28", "", -14], [337, "CDISCPILOT01", "MH", "01-701-1239", 3, "E03", "VERBATIM_0574", "TYPE II DIABETES MELLITUS", "DIABETES MELLITUS NON-INSULIN-DEPENDENT", "HLT_0706", "HLGT_0092", "SIGNIFICANT PRE-EXISTING CONDITION", "METABOLISM AND NUTRITION DISORDERS", "MILD", 1.0, "SCREENING 1", -7, "2013-12-28", "", -14], [338, "CDISCPILOT01", "MH", "01-701-1239", 4, "E02", "VERBATIM_0876", "DIZZINESS", "DIZZINESS", "HLT_0619", "HLGT_0751", "SIGNIFICANT PRE-EXISTING CONDITION", "NERVOUS SYSTEM DISORDERS", "MILD", 1.0, "SCREENING 1", -7, "2013-12-28", "", -14], [339, "CDISCPILOT01", "MH", "01-701-1239", 8, "E05", "VERBATIM_1669", "GOUT", "GOUT", "HLT_0396", "HLGT_0479", "SIGNIFICANT PRE-EXISTING CONDITION", "METABOLISM AND NUTRITION DISORDERS", "MILD", 1.0, "SCREENING 1", -7, "2013-12-28", "", -14], [340, "CDISCPILOT01", "MH", "01-701-1239", 14, "", "VERBATIM_0342", "HYPERTENSION", "HYPERTENSION", "HLT_0228", "HLGT_0476", "HISTORICAL DIAGNOSIS", "VASCULAR DISORDERS", "", 1.0, "SCREENING 1", -7, "2013-12-28", "2006", -14], [341, "CDISCPILOT01", "MH", "01-701-1239", 15, "", "VERBATIM_1188", "KNEE SURGERY NOS", "KNEE OPERATION", "HLT_0319", "HLGT_0033", "HISTORICAL DIAGNOSIS", "SURGICAL AND MEDICAL PROCEDURES", "", 1.0, "SCREENING 1", -7, "2013-12-28", "2008", -14], [342, "CDISCPILOT01", "MH", "01-701-1239", 7, "E08", "VERBATIM_1411", "MYOPIA", "MYOPIA", "HLT_0282", "HLGT_0271", "SIGNIFICANT PRE-EXISTING CONDITION", "EYE DISORDERS", "MILD", 1.0, "SCREENING 1", -7, "2013-12-28", "", -14], [343, "CDISCPILOT01", "MH", "01-701-1239", 9, "E01", "VERBATIM_1760", "EDEMA", "OEDEMA", "HLT_0656", "HLGT_0036", "SIGNIFICANT PRE-EXISTING CONDITION", "GENERAL DISORDERS AND ADMINISTRATION SITE CONDITIONS", "MILD", 1.0, "SCREENING 1", -7, "2013-12-28", "", -14], [344, "CDISCPILOT01", "MH", "01-701-1239", 2, "E04", "VERBATIM_0567", "TINGLING FEET/HANDS", "PARAESTHESIA", "HLT_0481", "HLGT_0534", "SIGNIFICANT PRE-EXISTING CONDITION", "NERVOUS SYSTEM DISORDERS", "MILD", 1.0, "SCREENING 1", -7, "2013-12-28", "", -14], [345, "CDISCPILOT01", "MH", "01-701-1239", 6, "E06", "VERBATIM_1316", "POLYARTHRITIS", "POLYARTHRITIS", "HLT_0134", "HLGT_0167", "SIGNIFICANT PRE-EXISTING CONDITION", "MUSCULOSKELETAL AND CONNECTIVE TISSUE DISORDERS", "MILD", 1.0, "SCREENING 1", -7, "2013-12-28", "", -14], [346, "CDISCPILOT01", "MH", "01-701-1239", 10, "", "VERBATIM_0236", "TOOTH EXTRACTION NOS", "TOOTH EXTRACTION", "HLT_0209", "HLGT_0762", "HISTORICAL DIAGNOSIS", "SURGICAL AND MEDICAL PROCEDURES", "", 1.0, "SCREENING 1", -7, "2013-12-28", "1979", -14], [347, "CDISCPILOT01", "MH", "01-701-1275", 4, "", "ALZHEIMER'S DISEASE", "", "", "", "", "PRIMARY DIAGNOSIS", "", "", 1.0, "SCREENING 1", -7, "2014-01-25", "2011-09-17", -13], [348, "CDISCPILOT01", "MH", "01-701-1275", 2, "E02", "VERBATIM_0301", "HEADACHE", "HEADACHE", "HLT_0064", "HLGT_0344", "SIGNIFICANT PRE-EXISTING CONDITION", "NERVOUS SYSTEM DISORDERS", "MILD", 1.0, "SCREENING 1", -7, "2014-01-25", "", -13], [349, "CDISCPILOT01", "MH", "01-701-1275", 3, "E03", "VERBATIM_1683", "HYPEROPIA", "HYPERMETROPIA", "HLT_0546", "HLGT_0646", "SIGNIFICANT PRE-EXISTING CONDITION", "EYE DISORDERS", "MILD", 1.0, "SCREENING 1", -7, "2014-01-25", "", -13], [350, "CDISCPILOT01", "MH", "01-701-1275", 1, "E01", "VERBATIM_0021", "NOCTURIA", "NOCTURIA", "HLT_0509", "HLGT_0605", "SIGNIFICANT PRE-EXISTING CONDITION", "RENAL AND URINARY DISORDERS", "MILD", 1.0, "SCREENING 1", -7, "2014-01-25", "", -13], [351, "CDISCPILOT01", "MH", "01-701-1287", 4, "", "ALZHEIMER'S DISEASE", "", "", "", "", "PRIMARY DIAGNOSIS", "", "", 1.0, "SCREENING 1", -7, "2014-01-17", "2009-10-30", -8], [352, "CDISCPILOT01", "MH", "01-701-1287", 5, "", "VERBATIM_1280", "ANXIETY", "ANXIETY", "HLT_0559", "HLGT_0570", "HISTORICAL DIAGNOSIS", "PSYCHIATRIC DISORDERS", "", 1.0, "SCREENING 1", -7, "2014-01-17", "2010", -8], [353, "CDISCPILOT01", "MH", "01-701-1287", 1, "E01", "VERBATIM_1532", "MYOPIA", "MYOPIA", "HLT_0282", "HLGT_0271", "SIGNIFICANT PRE-EXISTING CONDITION", "EYE DISORDERS", "MILD", 1.0, "SCREENING 1", -7, "2014-01-17", "", -8], [354, "CDISCPILOT01", "MH", "01-701-1287", 3, "", "VERBATIM_1763", "TUBAL LIGATION", "TUBAL LIGATION", "HLT_0730", "HLGT_0608", "HISTORICAL DIAGNOSIS", "SURGICAL AND MEDICAL PROCEDURES", "", 1.0, "SCREENING 1", -7, "2014-01-17", "1991", -8], [355, "CDISCPILOT01", "MH", "01-701-1287", 2, "", "VERBATIM_0526", "TUBERCULOSIS", "TUBERCULOSIS", "HLT_0344", "HLGT_0774", "HISTORICAL DIAGNOSIS", "INFECTIONS AND INFESTATIONS", "", 1.0, "SCREENING 1", -7, "2014-01-17", "1979", -8], [356, "CDISCPILOT01", "MH", "01-701-1294", 10, "", "ALZHEIMER'S DISEASE", "", "", "", "", "PRIMARY DIAGNOSIS", "", "", 1.0, "SCREENING 1", -7, "2013-03-17", "2011-09-09", -7], [357, "CDISCPILOT01", "MH", "01-701-1294", 11, "", "VERBATIM_1380", "ARTHROSCOPY R KNEE", "ARTHROSCOPY", "HLT_0048", "HLGT_0296", "HISTORICAL DIAGNOSIS", "INVESTIGATIONS", "", 1.0, "SCREENING 1", -7, "2013-03-17", "2012-12", -7], [358, "CDISCPILOT01", "MH", "01-701-1294", 8, "", "VERBATIM_0721", "DUODENAL ULCER", "DUODENAL ULCER", "HLT_0322", "HLGT_0349", "HISTORICAL DIAGNOSIS", "GASTROINTESTINAL DISORDERS", "", 1.0, "SCREENING 1", -7, "2013-03-17", "1976", -7], [359, "CDISCPILOT01", "MH", "01-701-1294", 7, "", "VERBATIM_1187", "HEMORRHOIDECTOMY", "HAEMORRHOID OPERATION", "HLT_0300", "HLGT_0468", "HISTORICAL DIAGNOSIS", "SURGICAL AND MEDICAL PROCEDURES", "", 1.0, "SCREENING 1", -7, "2013-03-17", "1966", -7], [360, "CDISCPILOT01", "MH", "01-701-1294", 1, "E01", "VERBATIM_0162", "GENITAL HERPES", "HERPES SIMPLEX", "HLT_0715", "HLGT_0438", "SIGNIFICANT PRE-EXISTING CONDITION", "INFECTIONS AND INFESTATIONS", "MILD", 1.0, "SCREENING 1", -7, "2013-03-17", "", -7], [361, "CDISCPILOT01", "MH", "01-701-1294", 9, "", "VERBATIM_0739", "KIDNEY STONES", "NEPHROLITHIASIS", "HLT_0439", "HLGT_0546", "HISTORICAL DIAGNOSIS", "RENAL AND URINARY DISORDERS", "", 1.0, "SCREENING 1", -7, "2013-03-17", "1976", -7], [362, "CDISCPILOT01", "MH", "01-701-1294", 4, "E02", "VERBATIM_1491", "POLYARTHRITIS", "POLYARTHRITIS", "HLT_0134", "HLGT_0167", "SIGNIFICANT PRE-EXISTING CONDITION", "MUSCULOSKELETAL AND CONNECTIVE TISSUE DISORDERS", "MILD", 1.0, "SCREENING 1", -7, "2013-03-17", "", -7], [363, "CDISCPILOT01", "MH", "01-701-1294", 5, "E04", "VERBATIM_1769", "SINUSITIS", "SINUSITIS", "HLT_0262", "HLGT_0249", "SIGNIFICANT PRE-EXISTING CONDITION", "INFECTIONS AND INFESTATIONS", "MILD", 1.0, "SCREENING 1", -7, "2013-03-17", "", -7], [364, "CDISCPILOT01", "MH", "01-701-1294", 3, "E03", "VERBATIM_1063", "ARTHRITIS OF NECK", "SPONDYLITIS", "HLT_0418", "HLGT_0708", "SIGNIFICANT PRE-EXISTING CONDITION", "MUSCULOSKELETAL AND CONNECTIVE TISSUE DISORDERS", "MILD", 1.0, "SCREENING 1", -7, "2013-03-17", "", -7], [365, "CDISCPILOT01", "MH", "01-701-1294", 6, "", "VERBATIM_1716", "TONSILLECTOMY", "TONSILLECTOMY", "HLT_0202", "HLGT_0199", "HISTORICAL DIAGNOSIS", "SURGICAL AND MEDICAL PROCEDURES", "", 1.0, "SCREENING 1", -7, "2013-03-17", "1946", -7], [366, "CDISCPILOT01", "MH", "01-701-1294", 2, "E05", "VERBATIM_0464", "VISION DECREASED", "VISUAL ACUITY REDUCED", "HLT_0421", "HLGT_0524", "SIGNIFICANT PRE-EXISTING CONDITION", "EYE DISORDERS", "MILD", 1.0, "SCREENING 1", -7, "2013-03-17", "", -7], [367, "CDISCPILOT01", "MH", "01-701-1302", 20, "", "ALZHEIMER'S DISEASE", "", "", "", "", "PRIMARY DIAGNOSIS", "", "", 1.0, "SCREENING 1", -7, "2013-08-20", "2007-02-09", -9], [368, "CDISCPILOT01", "MH", "01-701-1302", 15, "", "VERBATIM_1463", "ANKLE FRACTURE", "ANKLE FRACTURE", "HLT_0208", "HLGT_0252", "HISTORICAL DIAGNOSIS", "INJURY, POISONING AND PROCEDURAL COMPLICATIONS", "", 1.0, "SCREENING 1", -7, "2013-08-20", "1967", -9], [369, "CDISCPILOT01", "MH", "01-701-1302", 12, "E06", "VERBATIM_1781", "LOW BACK PAIN", "BACK PAIN", "HLT_0115", "HLGT_0508", "SIGNIFICANT PRE-EXISTING CONDITION", "MUSCULOSKELETAL AND CONNECTIVE TISSUE DISORDERS", "MILD", 1.0, "SCREENING 1", -7, "2013-08-20", "", -9], [370, "CDISCPILOT01", "MH", "01-701-1302", 9, "E12", "VERBATIM_1348", "ENLARGED PROSTATE", "BENIGN PROSTATIC HYPERPLASIA", "HLT_0215", "HLGT_0568", "SIGNIFICANT PRE-EXISTING CONDITION", "REPRODUCTIVE SYSTEM AND BREAST DISORDERS", "MILD", 1.0, "SCREENING 1", -7, "2013-08-20", "", -9], [371, "CDISCPILOT01", "MH", "01-701-1302", 4, "E11", "VERBATIM_0443", "CONSTIPATION", "CONSTIPATION", "HLT_0402", "HLGT_0635", "SIGNIFICANT PRE-EXISTING CONDITION", "GASTROINTESTINAL DISORDERS", "MILD", 1.0, "SCREENING 1", -7, "2013-08-20", "", -9], [372, "CDISCPILOT01", "MH", "01-701-1302", 3, "E08", "VERBATIM_0391", "HEARING LOSS", "DEAFNESS", "HLT_0234", "HLGT_0025", "SIGNIFICANT PRE-EXISTING CONDITION", "EAR AND LABYRINTH DISORDERS", "MILD", 1.0, "SCREENING 1", -7, "2013-08-20", "", -9], [373, "CDISCPILOT01", "MH", "01-701-1302", 7, "E10", "VERBATIM_1022", "DENTURE WEARER", "DENTURE WEARER", "HLT_0246", "HLGT_0763", "SIGNIFICANT PRE-EXISTING CONDITION", "SOCIAL CIRCUMSTANCES", "MILD", 1.0, "SCREENING 1", -7, "2013-08-20", "", -9], [374, "CDISCPILOT01", "MH", "01-701-1302", 11, "E09", "VERBATIM_1631", "DENTURE WEARER", "DENTURE WEARER", "HLT_0246", "HLGT_0763", "SIGNIFICANT PRE-EXISTING CONDITION", "SOCIAL CIRCUMSTANCES", "MILD", 1.0, "SCREENING 1", -7, "2013-08-20", "", -9], [375, "CDISCPILOT01", "MH", "01-701-1302", 16, "", "VERBATIM_1475", "GONORRHEA", "GONORRHOEA", "HLT_0638", "HLGT_0171", "HISTORICAL DIAGNOSIS", "INFECTIONS AND INFESTATIONS", "", 1.0, "SCREENING 1", -7, "2013-08-20", "1973", -9], [376, "CDISCPILOT01", "MH", "01-701-1302", 17, "", "VERBATIM_1768", "INTERNAL HEMORRHOIDS", "HAEMORRHOIDS", "HLT_0681", "HLGT_0485", "HISTORICAL DIAGNOSIS", "GASTROINTESTINAL DISORDERS", "", 1.0, "SCREENING 1", -7, "2013-08-20", "1993", -9], [377, "CDISCPILOT01", "MH", "01-701-1302", 6, "E02", "VERBATIM_0929", "HEADACHE", "HEADACHE", "HLT_0064", "HLGT_0344", "SIGNIFICANT PRE-EXISTING CONDITION", "NERVOUS SYSTEM DISORDERS", "MILD", 1.0, "SCREENING 1", -7, "2013-08-20", "", -9], [378, "CDISCPILOT01", "MH", "01-701-1302", 25, "", "VERBATIM_1438", "HERNIA REPAIR", "HERNIA REPAIR", "HLT_0766", "HLGT_0696", "HISTORICAL DIAGNOSIS", "SURGICAL AND MEDICAL PROCEDURES", "", 1.0, "SCREENING 1", -7, "2013-08-20", "2012-08", -9], [379, "CDISCPILOT01", "MH", "01-701-1302", 5, "E04", "VERBATIM_0894", "HERPES LESION INTRA-ORAL", "HERPES SIMPLEX", "HLT_0715", "HLGT_0438", "SIGNIFICANT PRE-EXISTING CONDITION", "INFECTIONS AND INFESTATIONS", "MILD", 1.0, "SCREENING 1", -7, "2013-08-20", "", -9], [380, "CDISCPILOT01", "MH", "01-701-1302", 18, "", "VERBATIM_1233", "INGUINAL HERNIA REPAIR", "INGUINAL HERNIA REPAIR", "HLT_0320", "HLGT_0772", "HISTORICAL DIAGNOSIS", "SURGICAL AND MEDICAL PROCEDURES", "", 1.0, "SCREENING 1", -7, "2013-08-20", "1995", -9], [381, "CDISCPILOT01", "MH", "01-701-1302", 2, "E01", "VERBATIM_0148", "OPHTHALMIC MIGRAINE", "MIGRAINE WITH AURA", "HLT_0029", "HLGT_0710", "SIGNIFICANT PRE-EXISTING CONDITION", "NERVOUS SYSTEM DISORDERS", "MILD", 1.0, "SCREENING 1", -7, "2013-08-20", "", -9], [382, "CDISCPILOT01", "MH", "01-701-1302", 23, "", "VERBATIM_0558", "MUSCLE PAIN", "MYALGIA", "HLT_0700", "HLGT_0121", "HISTORICAL DIAGNOSIS", "MUSCULOSKELETAL AND CONNECTIVE TISSUE DISORDERS", "", 1.0, "SCREENING 1", -7, "2013-08-20", "2012-04-04", -9], [383, "CDISCPILOT01", "MH", "01-701-1302", 10, "E07", "VERBATIM_1532", "MYOPIA", "MYOPIA", "HLT_0282", "HLGT_0271", "SIGNIFICANT PRE-EXISTING CONDITION", "EYE DISORDERS", "MILD", 1.0, "SCREENING 1", -7, "2013-08-20", "", -9], [384, "CDISCPILOT01", "MH", "01-701-1302", 22, "", "VERBATIM_1747", "PAINFUL DEFECATION", "PAINFUL DEFAECATION", "HLT_0379", "HLGT_0315", "HISTORICAL DIAGNOSIS", "GASTROINTESTINAL DISORDERS", "", 1.0, "SCREENING 1", -7, "2013-08-20", "2012-03-15", -9], [385, "CDISCPILOT01", "MH", "01-701-1302", 14, "", "VERBATIM_0919", "PNEUMONIA", "PNEUMONIA", "HLT_0251", "HLGT_0671", "HISTORICAL DIAGNOSIS", "INFECTIONS AND INFESTATIONS", "", 1.0, "SCREENING 1", -7, "2013-08-20", "1966", -9], [386, "CDISCPILOT01", "MH", "01-701-1302", 21, "", "VERBATIM_0123", "BLEEDING RECTAL", "RECTAL HAEMORRHAGE", "HLT_0353", "HLGT_0755", "HISTORICAL DIAGNOSIS", "GASTROINTESTINAL DISORDERS", "", 1.0, "SCREENING 1", -7, "2013-08-20", "2012-03-15", -9], [387, "CDISCPILOT01", "MH", "01-701-1302", 13, "", "VERBATIM_1716", "TONSILLECTOMY", "TONSILLECTOMY", "HLT_0202", "HLGT_0199", "HISTORICAL DIAGNOSIS", "SURGICAL AND MEDICAL PROCEDURES", "", 1.0, "SCREENING 1", -7, "2013-08-20", "1956", -9], [388, "CDISCPILOT01", "MH", "01-701-1302", 19, "", "VERBATIM_1738", "TOOTH EXTRACTION", "TOOTH EXTRACTION", "HLT_0209", "HLGT_0762", "HISTORICAL DIAGNOSIS", "SURGICAL AND MEDICAL PROCEDURES", "", 1.0, "SCREENING 1", -7, "2013-08-20", "1997", -9], [389, "CDISCPILOT01", "MH", "01-701-1302", 24, "", "VERBATIM_0579", "UPPER RESPIRATORY INFECTION", "UPPER RESPIRATORY TRACT INFECTION", "HLT_0520", "HLGT_0489", "HISTORICAL DIAGNOSIS", "INFECTIONS AND INFESTATIONS", "", 1.0, "SCREENING 1", -7, "2013-08-20", "2012-04-04", -9], [390, "CDISCPILOT01", "MH", "01-701-1302", 8, "E03", "VERBATIM_1094", "DILATED VEINS", "VASODILATATION", "HLT_0453", "HLGT_0394", "SIGNIFICANT PRE-EXISTING CONDITION", "VASCULAR DISORDERS", "MILD", 1.0, "SCREENING 1", -7, "2013-08-20", "", -9], [391, "CDISCPILOT01", "MH", "01-701-1302", 1, "E05", "VERBATIM_0045", "WHIPLASH INJURY", "WHIPLASH INJURY", "HLT_0632", "HLGT_0653", "SIGNIFICANT PRE-EXISTING CONDITION", "INJURY, POISONING AND PROCEDURAL COMPLICATIONS", "MILD", 1.0, "SCREENING 1", -7, "2013-08-20", "", -9], [392, "CDISCPILOT01", "MH", "01-701-1317", 12, "", "ALZHEIMER'S DISEASE", "", "", "", "", "PRIMARY DIAGNOSIS", "", "", 1.0, "SCREENING 1", -7, "2014-05-10", "2013-09-16", -12], [393, "CDISCPILOT01", "MH", "01-701-1317", 5, "E08", "VERBATIM_0391", "HEARING LOSS", "DEAFNESS", "HLT_0234", "HLGT_0025", "SIGNIFICANT PRE-EXISTING CONDITION", "EAR AND LABYRINTH DISORDERS", "MILD", 1.0, "SCREENING 1", -7, "2014-05-10", "", -12], [394, "CDISCPILOT01", "MH", "01-701-1317", 6, "E02", "VERBATIM_0841", "HEARTBURN", "DYSPEPSIA", "HLT_0244", "HLGT_0716", "SIGNIFICANT PRE-EXISTING CONDITION", "GASTROINTESTINAL DISORDERS", "MILD", 1.0, "SCREENING 1", -7, "2014-05-10", "", -12], [395, "CDISCPILOT01", "MH", "01-701-1317", 3, "E01", "VERBATIM_0267", "HEMORRHOIDS", "HAEMORRHOIDS", "HLT_0681", "HLGT_0485", "SIGNIFICANT PRE-EXISTING CONDITION", "GASTROINTESTINAL DISORDERS", "MILD", 1.0, "SCREENING 1", -7, "2014-05-10", "", -12], [396, "CDISCPILOT01", "MH", "01-701-1317", 4, "E04", "VERBATIM_0301", "HEADACHE", "HEADACHE", "HLT_0064", "HLGT_0344", "SIGNIFICANT PRE-EXISTING CONDITION", "NERVOUS SYSTEM DISORDERS", "MILD", 1.0, "SCREENING 1", -7, "2014-05-10", "", -12], [397, "CDISCPILOT01", "MH", "01-701-1317", 2, "E05", "VERBATIM_0162", "GENITAL HERPES", "HERPES SIMPLEX", "HLT_0715", "HLGT_0438", "SIGNIFICANT PRE-EXISTING CONDITION", "INFECTIONS AND INFESTATIONS", "MILD", 1.0, "SCREENING 1", -7, "2014-05-10", "", -12], [398, "CDISCPILOT01", "MH", "01-701-1317", 7, "E09", "VERBATIM_1190", "NEARSIGHTED", "MYOPIA", "HLT_0282", "HLGT_0271", "SIGNIFICANT PRE-EXISTING CONDITION", "EYE DISORDERS", "MILD", 1.0, "SCREENING 1", -7, "2014-05-10", "", -12], [399, "CDISCPILOT01", "MH", "01-701-1317", 1, "E03", "VERBATIM_0014", "NOCTURIA", "NOCTURIA", "HLT_0509", "HLGT_0605", "SIGNIFICANT PRE-EXISTING CONDITION", "RENAL AND URINARY DISORDERS", "MILD", 1.0, "SCREENING 1", -7, "2014-05-10", "", -12], [400, "CDISCPILOT01", "MH", "01-701-1317", 10, "E07", "VERBATIM_1662", "RHEUMATOID ARTHRITIS", "RHEUMATOID ARTHRITIS", "HLT_0390", "HLGT_0743", "SIGNIFICANT PRE-EXISTING CONDITION", "MUSCULOSKELETAL AND CONNECTIVE TISSUE DISORDERS", "MILD", 1.0, "SCREENING 1", -7, "2014-05-10", "", -12], [401, "CDISCPILOT01", "MH", "01-701-1317", 8, "E06", "VERBATIM_1257", "SKIN NODULE", "SKIN NODULE", "HLT_0540", "HLGT_0334", "SIGNIFICANT PRE-EXISTING CONDITION", "SKIN AND SUBCUTANEOUS TISSUE DISORDERS", "MILD", 1.0, "SCREENING 1", -7, "2014-05-10", "", -12], [402, "CDISCPILOT01", "MH", "01-701-1317", 11, "", "VERBATIM_1716", "TONSILLECTOMY", "TONSILLECTOMY", "HLT_0202", "HLGT_0199", "HISTORICAL DIAGNOSIS", "SURGICAL AND MEDICAL PROCEDURES", "", 1.0, "SCREENING 1", -7, "2014-05-10", "1951", -12], [403, "CDISCPILOT01", "MH", "01-701-1317", 9, "E10", "VERBATIM_1580", "TOOTHACHE", "TOOTHACHE", "HLT_0470", "HLGT_0525", "SIGNIFICANT PRE-EXISTING CONDITION", "GASTROINTESTINAL DISORDERS", "MILD", 1.0, "SCREENING 1", -7, "2014-05-10", "", -12], [404, "CDISCPILOT01", "MH", "01-701-1324", 10, "", "ALZHEIMER'S DISEASE", "", "", "", "", "PRIMARY DIAGNOSIS", "", "", 1.0, "SCREENING 1", -7, "2012-09-16", "2009-10-11", -16], [405, "CDISCPILOT01", "MH", "01-701-1324", 8, "", "VERBATIM_1583", "BACK PAIN", "BACK PAIN", "HLT_0115", "HLGT_0508", "HISTORICAL DIAGNOSIS", "MUSCULOSKELETAL AND CONNECTIVE TISSUE DISORDERS", "", 1.0, "SCREENING 1", -7, "2012-09-16", "2005", -16], [406, "CDISCPILOT01", "MH", "01-701-1324", 1, "E03", "VERBATIM_0884", "CATARACTS", "CATARACT", "HLT_0090", "HLGT_0498", "SIGNIFICANT PRE-EXISTING CONDITION", "EYE DISORDERS", "MILD", 1.0, "SCREENING 1", -7, "2012-09-16", "", -16], [407, "CDISCPILOT01", "MH", "01-701-1324", 6, "", "VERBATIM_0722", "HERNIA REPAIR", "HERNIA REPAIR", "HLT_0766", "HLGT_0696", "HISTORICAL DIAGNOSIS", "SURGICAL AND MEDICAL PROCEDURES", "", 1.0, "SCREENING 1", -7, "2012-09-16", "2001", -16], [408, "CDISCPILOT01", "MH", "01-701-1324", 9, "", "VERBATIM_1640", "HIP REPLACEMENT", "HIP ARTHROPLASTY", "HLT_0709", "HLGT_0449", "HISTORICAL DIAGNOSIS", "SURGICAL AND MEDICAL PROCEDURES", "", 1.0, "SCREENING 1", -7, "2012-09-16", "2005", -16], [409, "CDISCPILOT01", "MH", "01-701-1324", 3, "E02", "VERBATIM_1683", "HYPEROPIA", "HYPERMETROPIA", "HLT_0546", "HLGT_0646", "SIGNIFICANT PRE-EXISTING CONDITION", "EYE DISORDERS", "MODERATE", 1.0, "SCREENING 1", -7, "2012-09-16", "", -16], [410, "CDISCPILOT01", "MH", "01-701-1324", 5, "", "VERBATIM_0206", "LEFT INGUINAL HERNIA", "INGUINAL HERNIA", "HLT_0388", "HLGT_0368", "HISTORICAL DIAGNOSIS", "GASTROINTESTINAL DISORDERS", "", 1.0, "SCREENING 1", -7, "2012-09-16", "2001", -16], [411, "CDISCPILOT01", "MH", "01-701-1324", 7, "", "VERBATIM_0809", "OSTEOARTHRITIS", "OSTEOARTHRITIS", "HLT_0247", "HLGT_0462", "HISTORICAL DIAGNOSIS", "MUSCULOSKELETAL AND CONNECTIVE TISSUE DISORDERS", "", 1.0, "SCREENING 1", -7, "2012-09-16", "2005", -16], [412, "CDISCPILOT01", "MH", "01-701-1324", 2, "E01", "VERBATIM_1065", "TINNITUS", "TINNITUS", "HLT_0570", "HLGT_0180", "SIGNIFICANT PRE-EXISTING CONDITION", "EAR AND LABYRINTH DISORDERS", "MILD", 1.0, "SCREENING 1", -7, "2012-09-16", "", -16], [413, "CDISCPILOT01", "MH", "01-701-1324", 4, "", "VERBATIM_1716", "TONSILLECTOMY", "TONSILLECTOMY", "HLT_0202", "HLGT_0199", "HISTORICAL DIAGNOSIS", "SURGICAL AND MEDICAL PROCEDURES", "", 1.0, "SCREENING 1", -7, "2012-09-16", "1944", -16], [414, "CDISCPILOT01", "MH", "01-701-1341", 14, "", "ALZHEIMER'S DISEASE", "", "", "", "", "PRIMARY DIAGNOSIS", "", "", 1.0, "SCREENING 1", -7, "2012-12-22", "2006-06-05", -14], [415, "CDISCPILOT01", "MH", "01-701-1341", 4, "E08", "VERBATIM_0676", "ARTHRITIS", "ARTHRITIS", "HLT_0019", "HLGT_0587", "SIGNIFICANT PRE-EXISTING CONDITION", "MUSCULOSKELETAL AND CONNECTIVE TISSUE DISORDERS", "MILD", 1.0, "SCREENING 1", -7, "2012-12-22", "", -14], [416, "CDISCPILOT01", "MH", "01-701-1341", 6, "E03", "VERBATIM_1236", "COUGH NONPRODUCTIVE", "COUGH", "HLT_0701", "HLGT_0280", "SIGNIFICANT PRE-EXISTING CONDITION", "RESPIRATORY, THORACIC AND MEDIASTINAL DISORDERS", "MILD", 1.0, "SCREENING 1", -7, "2012-12-22", "", -14], [417, "CDISCPILOT01", "MH", "01-701-1341", 7, "E07", "VERBATIM_1592", "DEPRESSION", "DEPRESSION", "HLT_0167", "HLGT_0582", "SIGNIFICANT PRE-EXISTING CONDITION", "PSYCHIATRIC DISORDERS", "MILD", 1.0, "SCREENING 1", -7, "2012-12-22", "", -14], [418, "CDISCPILOT01", "MH", "01-701-1341", 5, "E04", "VERBATIM_1049", "LIGHTHEADEDNESS", "DIZZINESS", "HLT_0619", "HLGT_0751", "SIGNIFICANT PRE-EXISTING CONDITION", "NERVOUS SYSTEM DISORDERS", "MILD", 1.0, "SCREENING 1", -7, "2012-12-22", "", -14], [419, "CDISCPILOT01", "MH", "01-701-1341", 13, "", "VERBATIM_1302", "HEAD INJURY", "HEAD INJURY", "HLT_0201", "HLGT_0554", "HISTORICAL DIAGNOSIS", "INJURY, POISONING AND PROCEDURAL COMPLICATIONS", "", 1.0, "SCREENING 1", -7, "2012-12-22", "2003", -14], [420, "CDISCPILOT01", "MH", "01-701-1341", 8, "E06", "VERBATIM_1683", "HYPEROPIA", "HYPERMETROPIA", "HLT_0546", "HLGT_0646", "SIGNIFICANT PRE-EXISTING CONDITION", "EYE DISORDERS", "MILD", 1.0, "SCREENING 1", -7, "2012-12-22", "", -14], [421, "CDISCPILOT01", "MH", "01-701-1341", 3, "E01", "VERBATIM_0342", "HYPERTENSION", "HYPERTENSION", "HLT_0228", "HLGT_0476", "SIGNIFICANT PRE-EXISTING CONDITION", "VASCULAR DISORDERS", "MILD", 1.0, "SCREENING 1", -7, "2012-12-22", "", -14], [422, "CDISCPILOT01", "MH", "01-701-1341", 12, "", "VERBATIM_1505", "NERVE COMPRESSION", "NERVE COMPRESSION", "HLT_0463", "HLGT_0502", "HISTORICAL DIAGNOSIS", "NERVOUS SYSTEM DISORDERS", "", 1.0, "SCREENING 1", -7, "2012-12-22", "1990", -14], [423, "CDISCPILOT01", "MH", "01-701-1341", 2, "E02", "VERBATIM_0182", "EDEMA HANDS", "OEDEMA PERIPHERAL", "HLT_0661", "HLGT_0137", "SIGNIFICANT PRE-EXISTING CONDITION", "GENERAL DISORDERS AND ADMINISTRATION SITE CONDITIONS", "MILD", 1.0, "SCREENING 1", -7, "2012-12-22", "", -14], [424, "CDISCPILOT01", "MH", "01-701-1341", 11, "", "VERBATIM_0919", "PNEUMONIA", "PNEUMONIA", "HLT_0251", "HLGT_0671", "HISTORICAL DIAGNOSIS", "INFECTIONS AND INFESTATIONS", "", 1.0, "SCREENING 1", -7, "2012-12-22", "1983", -14], [425, "CDISCPILOT01", "MH", "01-701-1341", 1, "E05", "VERBATIM_0119", "POLYARTHRITIS", "POLYARTHRITIS", "HLT_0134", "HLGT_0167", "SIGNIFICANT PRE-EXISTING CONDITION", "MUSCULOSKELETAL AND CONNECTIVE TISSUE DISORDERS", "MILD", 1.0, "SCREENING 1", -7, "2012-12-22", "", -14], [426, "CDISCPILOT01", "MH", "01-701-1341", 10, "", "VERBATIM_0433", "RHEUMATIC FEVER", "RHEUMATIC FEVER", "HLT_0366", "HLGT_0428", "HISTORICAL DIAGNOSIS", "MUSCULOSKELETAL AND CONNECTIVE TISSUE DISORDERS", "", 1.0, "SCREENING 1", -7, "2012-12-22", "1966", -14], [427, "CDISCPILOT01", "MH", "01-701-1341", 9, "", "VERBATIM_1716", "TONSILLECTOMY", "TONSILLECTOMY", "HLT_0202", "HLGT_0199", "HISTORICAL DIAGNOSIS", "SURGICAL AND MEDICAL PROCEDURES", "", 1.0, "SCREENING 1", -7, "2012-12-22", "1964", -14], [428, "CDISCPILOT01", "MH", "01-701-1345", 8, "", "ALZHEIMER'S DISEASE", "", "", "", "", "PRIMARY DIAGNOSIS", "", "", 1.0, "SCREENING 1", -7, "2013-10-01", "2010-11-05", -7], [429, "CDISCPILOT01", "MH", "01-701-1345", 7, "", "VERBATIM_1583", "BACK PAIN", "BACK PAIN", "HLT_0115", "HLGT_0508", "HISTORICAL DIAGNOSIS", "MUSCULOSKELETAL AND CONNECTIVE TISSUE DISORDERS", "", 1.0, "SCREENING 1", -7, "2013-10-01", "2010-03-22", -7], [430, "CDISCPILOT01", "MH", "01-701-1345", 6, "", "VERBATIM_0841", "HEARTBURN", "DYSPEPSIA", "HLT_0244", "HLGT_0716", "HISTORICAL DIAGNOSIS", "GASTROINTESTINAL DISORDERS", "", 1.0, "SCREENING 1", -7, "2013-10-01", "1983", -7], [431, "CDISCPILOT01", "MH", "01-701-1345", 9, "", "VERBATIM_0837", "EAR PAIN", "EAR PAIN", "HLT_0631", "HLGT_0432", "HISTORICAL DIAGNOSIS", "EAR AND LABYRINTH DISORDERS", "", 1.0, "SCREENING 1", -7, "2013-10-01", "2012", -7], [432, "CDISCPILOT01", "MH", "01-701-1345", 5, "", "VERBATIM_1800", "MALIGNANT NASOPHARYNGEAL NEOPLASM", "NASOPHARYNGEAL CANCER", "HLT_0568", "HLGT_0707", "HISTORICAL DIAGNOSIS", "NEOPLASMS BENIGN, MALIGNANT AND UNSPECIFIED (INCL CYSTS AND POLYPS)", "", 1.0, "SCREENING 1", -7, "2013-10-01", "1972", -7], [433, "CDISCPILOT01", "MH", "01-701-1345", 2, "", "VERBATIM_0919", "PNEUMONIA", "PNEUMONIA", "HLT_0251", "HLGT_0671", "HISTORICAL DIAGNOSIS", "INFECTIONS AND INFESTATIONS", "", 1.0, "SCREENING 1", -7, "2013-10-01", "1952", -7], [434, "CDISCPILOT01", "MH", "01-701-1345", 1, "E01", "VERBATIM_0507", "PRESBYOPIA", "PRESBYOPIA", "HLT_0230", "HLGT_0759", "SIGNIFICANT PRE-EXISTING CONDITION", "EYE DISORDERS", "MILD", 1.0, "SCREENING 1", -7, "2013-10-01", "", -7], [435, "CDISCPILOT01", "MH", "01-701-1345", 4, "", "VERBATIM_1769", "SINUSITIS", "SINUSITIS", "HLT_0262", "HLGT_0249", "HISTORICAL DIAGNOSIS", "INFECTIONS AND INFESTATIONS", "", 1.0, "SCREENING 1", -7, "2013-10-01", "1963-06-22", -7], [436, "CDISCPILOT01", "MH", "01-701-1345", 3, "", "VERBATIM_1716", "TONSILLECTOMY", "TONSILLECTOMY", "HLT_0202", "HLGT_0199", "HISTORICAL DIAGNOSIS", "SURGICAL AND MEDICAL PROCEDURES", "", 1.0, "SCREENING 1", -7, "2013-10-01", "1957", -7], [437, "CDISCPILOT01", "MH", "01-701-1360", 12, "", "ALZHEIMER'S DISEASE", "", "", "", "", "PRIMARY DIAGNOSIS", "", "", 1.0, "SCREENING 1", -7, "2013-07-24", "2008-12-02", -7], [438, "CDISCPILOT01", "MH", "01-701-1360", 6, "E03", "VERBATIM_1048", "ARTHRITIS", "ARTHRITIS", "HLT_0019", "HLGT_0587", "SIGNIFICANT PRE-EXISTING CONDITION", "MUSCULOSKELETAL AND CONNECTIVE TISSUE DISORDERS", "MODERATE", 1.0, "SCREENING 1", -7, "2013-07-24", "", -7], [439, "CDISCPILOT01", "MH", "01-701-1360", 2, "E07", "VERBATIM_0611", "DENTURE WEARER", "DENTURE WEARER", "HLT_0246", "HLGT_0763", "SIGNIFICANT PRE-EXISTING CONDITION", "SOCIAL CIRCUMSTANCES", "MILD", 1.0, "SCREENING 1", -7, "2013-07-24", "", -7], [440, "CDISCPILOT01", "MH", "01-701-1360", 13, "", "VERBATIM_1753", "BREATH SHORTNESS", "DYSPNOEA", "HLT_0296", "HLGT_0255", "HISTORICAL DIAGNOSIS", "RESPIRATORY, THORACIC AND MEDIASTINAL DISORDERS", "", 1.0, "SCREENING 1", -7, "2013-07-24", "2010", -7], [441, "CDISCPILOT01", "MH", "01-701-1360", 10, "", "VERBATIM_1187", "HEMORRHOIDECTOMY", "HAEMORRHOID OPERATION", "HLT_0300", "HLGT_0468", "HISTORICAL DIAGNOSIS", "SURGICAL AND MEDICAL PROCEDURES", "", 1.0, "SCREENING 1", -7, "2013-07-24", "1976", -7], [442, "CDISCPILOT01", "MH", "01-701-1360", 11, "", "VERBATIM_0898", "HAND FRACTURE", "HAND FRACTURE", "HLT_0157", "HLGT_0169", "HISTORICAL DIAGNOSIS", "INJURY, POISONING AND PROCEDURAL COMPLICATIONS", "", 1.0, "SCREENING 1", -7, "2013-07-24", "1986", -7], [443, "CDISCPILOT01", "MH", "01-701-1360", 4, "E01", "VERBATIM_0929", "HEADACHE", "HEADACHE", "HLT_0064", "HLGT_0344", "SIGNIFICANT PRE-EXISTING CONDITION", "NERVOUS SYSTEM DISORDERS", "MILD", 1.0, "SCREENING 1", -7, "2013-07-24", "", -7], [444, "CDISCPILOT01", "MH", "01-701-1360", 7, "E06", "VERBATIM_1759", "HYPEROPIA", "HYPERMETROPIA", "HLT_0546", "HLGT_0646", "SIGNIFICANT PRE-EXISTING CONDITION", "EYE DISORDERS", "MILD", 1.0, "SCREENING 1", -7, "2013-07-24", "", -7], [445, "CDISCPILOT01", "MH", "01-701-1360", 5, "E04", "VERBATIM_1026", "JOINT SWELLING", "JOINT SWELLING", "HLT_0171", "HLGT_0417", "SIGNIFICANT PRE-EXISTING CONDITION", "MUSCULOSKELETAL AND CONNECTIVE TISSUE DISORDERS", "MILD", 1.0, "SCREENING 1", -7, "2013-07-24", "", -7], [446, "CDISCPILOT01", "MH", "01-701-1360", 9, "", "VERBATIM_0944", "COLON ULCER", "LARGE INTESTINAL ULCER", "HLT_0428", "HLGT_0160", "HISTORICAL DIAGNOSIS", "GASTROINTESTINAL DISORDERS", "", 1.0, "SCREENING 1", -7, "2013-07-24", "1975", -7], [447, "CDISCPILOT01", "MH", "01-701-1360", 14, "", "VERBATIM_1000", "ESOPHAGEAL OPERATION", "OESOPHAGEAL OPERATION", "HLT_0425", "HLGT_0425", "HISTORICAL DIAGNOSIS", "SURGICAL AND MEDICAL PROCEDURES", "", 1.0, "SCREENING 1", -7, "2013-07-24", "2011", -7], [448, "CDISCPILOT01", "MH", "01-701-1360", 15, "", "VERBATIM_1594", "PLEURISY", "PLEURISY", "HLT_0268", "HLGT_0356", "HISTORICAL DIAGNOSIS", "RESPIRATORY, THORACIC AND MEDIASTINAL DISORDERS", "", 1.0, "SCREENING 1", -7, "2013-07-24", "2011", -7], [449, "CDISCPILOT01", "MH", "01-701-1360", 1, "E02", "VERBATIM_0512", "PSORIASIS", "PSORIASIS", "HLT_0740", "HLGT_0038", "SIGNIFICANT PRE-EXISTING CONDITION", "SKIN AND SUBCUTANEOUS TISSUE DISORDERS", "MILD", 1.0, "SCREENING 1", -7, "2013-07-24", "", -7], [450, "CDISCPILOT01", "MH", "01-701-1360", 3, "E05", "VERBATIM_0845", "TINNITUS", "TINNITUS", "HLT_0570", "HLGT_0180", "SIGNIFICANT PRE-EXISTING CONDITION", "EAR AND LABYRINTH DISORDERS", "MILD", 1.0, "SCREENING 1", -7, "2013-07-24", "", -7], [451, "CDISCPILOT01", "MH", "01-701-1360", 8, "", "VERBATIM_1716", "TONSILLECTOMY", "TONSILLECTOMY", "HLT_0202", "HLGT_0199", "HISTORICAL DIAGNOSIS", "SURGICAL AND MEDICAL PROCEDURES", "", 1.0, "SCREENING 1", -7, "2013-07-24", "1965", -7], [452, "CDISCPILOT01", "MH", "01-701-1363", 9, "", "ALZHEIMER'S DISEASE", "", "", "", "", "PRIMARY DIAGNOSIS", "", "", 1.0, "SCREENING 1", -7, "2013-05-20", "2005-10-20", -10], [453, "CDISCPILOT01", "MH", "01-701-1363", 2, "E04", "VERBATIM_0120", "ANEMIA", "ANAEMIA", "HLT_0378", "HLGT_0230", "SIGNIFICANT PRE-EXISTING CONDITION", "BLOOD AND LYMPHATIC SYSTEM DISORDERS", "MILD", 1.0, "SCREENING 1", -7, "2013-05-20", "", -10], [454, "CDISCPILOT01", "MH", "01-701-1363", 11, "", "VERBATIM_0030", "ARRHYTHMIA", "ARRHYTHMIA", "HLT_0145", "HLGT_0291", "HISTORICAL DIAGNOSIS", "CARDIAC DISORDERS", "", 1.0, "SCREENING 1", -7, "2013-05-20", "2011", -10], [455, "CDISCPILOT01", "MH", "01-701-1363", 14, "", "VERBATIM_0987", "PAIN IN HIP", "ARTHRALGIA", "HLT_0375", "HLGT_0610", "HISTORICAL DIAGNOSIS", "MUSCULOSKELETAL AND CONNECTIVE TISSUE DISORDERS", "", 1.0, "SCREENING 1", -7, "2013-05-20", "2012", -10], [456, "CDISCPILOT01", "MH", "01-701-1363", 1, "E08", "VERBATIM_0094", "ARTHRITIS", "ARTHRITIS", "HLT_0019", "HLGT_0587", "SIGNIFICANT PRE-EXISTING CONDITION", "MUSCULOSKELETAL AND CONNECTIVE TISSUE DISORDERS", "MILD", 1.0, "SCREENING 1", -7, "2013-05-20", "", -10], [457, "CDISCPILOT01", "MH", "01-701-1363", 12, "", "VERBATIM_1405", "UPPER BACK PAIN", "BACK PAIN", "HLT_0115", "HLGT_0508", "HISTORICAL DIAGNOSIS", "MUSCULOSKELETAL AND CONNECTIVE TISSUE DISORDERS", "", 1.0, "SCREENING 1", -7, "2013-05-20", "2011", -10], [458, "CDISCPILOT01", "MH", "01-701-1363", 5, "E02", "VERBATIM_0443", "CONSTIPATION", "CONSTIPATION", "HLT_0402", "HLGT_0635", "SIGNIFICANT PRE-EXISTING CONDITION", "GASTROINTESTINAL DISORDERS", "MILD", 1.0, "SCREENING 1", -7, "2013-05-20", "", -10], [459, "CDISCPILOT01", "MH", "01-701-1363", 4, "E06", "VERBATIM_0391", "HEARING LOSS", "DEAFNESS", "HLT_0234", "HLGT_0025", "SIGNIFICANT PRE-EXISTING CONDITION", "EAR AND LABYRINTH DISORDERS", "MILD", 1.0, "SCREENING 1", -7, "2013-05-20", "", -10], [460, "CDISCPILOT01", "MH", "01-701-1363", 15, "", "VERBATIM_1049", "LIGHTHEADEDNESS", "DIZZINESS", "HLT_0619", "HLGT_0751", "HISTORICAL DIAGNOSIS", "NERVOUS SYSTEM DISORDERS", "", 1.0, "SCREENING 1", -7, "2013-05-20", "2012", -10], [461, "CDISCPILOT01", "MH", "01-701-1363", 6, "E01", "VERBATIM_0800", "INDIGESTION", "DYSPEPSIA", "HLT_0244", "HLGT_0716", "SIGNIFICANT PRE-EXISTING CONDITION", "GASTROINTESTINAL DISORDERS", "MILD", 1.0, "SCREENING 1", -7, "2013-05-20", "", -10], [462, "CDISCPILOT01", "MH", "01-701-1363", 13, "", "VERBATIM_0336", "ECZEMA", "ECZEMA", "HLT_0747", "HLGT_0748", "HISTORICAL DIAGNOSIS", "SKIN AND SUBCUTANEOUS TISSUE DISORDERS", "", 1.0, "SCREENING 1", -7, "2013-05-20", "2012", -10], [463, "CDISCPILOT01", "MH", "01-701-1363", 3, "E03", "VERBATIM_0301", "HEADACHE", "HEADACHE", "HLT_0064", "HLGT_0344", "SIGNIFICANT PRE-EXISTING CONDITION", "NERVOUS SYSTEM DISORDERS", "MILD", 1.0, "SCREENING 1", -7, "2013-05-20", "", -10], [464, "CDISCPILOT01", "MH", "01-701-1363", 10, "", "VERBATIM_0302", "CONSCIOUSNESS LOSS", "LOSS OF CONSCIOUSNESS", "HLT_0529", "HLGT_0595", "HISTORICAL DIAGNOSIS", "NERVOUS SYSTEM DISORDERS", "", 1.0, "SCREENING 1", -7, "2013-05-20", "2007", -10], [465, "CDISCPILOT01", "MH", "01-701-1363", 8, "E05", "VERBATIM_1532", "MYOPIA", "MYOPIA", "HLT_0282", "HLGT_0271", "SIGNIFICANT PRE-EXISTING CONDITION", "EYE DISORDERS", "MILD", 1.0, "SCREENING 1", -7, "2013-05-20", "", -10], [466, "CDISCPILOT01", "MH", "01-701-1363", 7, "E07", "VERBATIM_1460", "SHOULDER PAIN", "SHOULDER PAIN", "HLT_0527", "HLGT_0288", "SIGNIFICANT PRE-EXISTING CONDITION", "MUSCULOSKELETAL AND CONNECTIVE TISSUE DISORDERS", "MILD", 1.0, "SCREENING 1", -7, "2013-05-20", "", -10], [467, "CDISCPILOT01", "MH", "01-701-1383", 13, "", "ALZHEIMER'S DISEASE", "", "", "", "", "PRIMARY DIAGNOSIS", "", "", 1.0, "SCREENING 1", -7, "2013-01-22", "2006-08-20", -13], [468, "CDISCPILOT01", "MH", "01-701-1383", 6, "", "VERBATIM_1775", "APPENDECTOMY", "APPENDICECTOMY", "HLT_0707", "HLGT_0363", "HISTORICAL DIAGNOSIS", "SURGICAL AND MEDICAL PROCEDURES", "", 1.0, "SCREENING 1", -7, "2013-01-22", "1969", -13], [469, "CDISCPILOT01", "MH", "01-701-1383", 5, "", "VERBATIM_0531", "CESAREAN SECTION", "CAESAREAN SECTION", "HLT_0506", "HLGT_0766", "HISTORICAL DIAGNOSIS", "SURGICAL AND MEDICAL PROCEDURES", "", 1.0, "SCREENING 1", -7, "2013-01-22", "1969", -13], [470, "CDISCPILOT01", "MH", "01-701-1383", 7, "", "VERBATIM_0531", "CESAREAN SECTION", "CAESAREAN SECTION", "HLT_0506", "HLGT_0766", "HISTORICAL DIAGNOSIS", "SURGICAL AND MEDICAL PROCEDURES", "", 1.0, "SCREENING 1", -7, "2013-01-22", "1972", -13], [471, "CDISCPILOT01", "MH", "01-701-1383", 1, "E01", "VERBATIM_0443", "CONSTIPATION", "CONSTIPATION", "HLT_0402", "HLGT_0635", "SIGNIFICANT PRE-EXISTING CONDITION", "GASTROINTESTINAL DISORDERS", "MILD", 1.0, "SCREENING 1", -7, "2013-01-22", "", -13], [472, "CDISCPILOT01", "MH", "01-701-1383", 9, "", "VERBATIM_1187", "HEMORRHOIDECTOMY", "HAEMORRHOID OPERATION", "HLT_0300", "HLGT_0468", "HISTORICAL DIAGNOSIS", "SURGICAL AND MEDICAL PROCEDURES", "", 1.0, "SCREENING 1", -7, "2013-01-22", "1982", -13], [473, "CDISCPILOT01", "MH", "01-701-1383", 10, "", "VERBATIM_1187", "HEMORRHOIDECTOMY", "HAEMORRHOID OPERATION", "HLT_0300", "HLGT_0468", "HISTORICAL DIAGNOSIS", "SURGICAL AND MEDICAL PROCEDURES", "", 1.0, "SCREENING 1", -7, "2013-01-22", "1988", -13], [474, "CDISCPILOT01", "MH", "01-701-1383", 3, "E03", "VERBATIM_1683", "HYPEROPIA", "HYPERMETROPIA", "HLT_0546", "HLGT_0646", "SIGNIFICANT PRE-EXISTING CONDITION", "EYE DISORDERS", "MILD", 1.0, "SCREENING 1", -7, "2013-01-22", "", -13], [475, "CDISCPILOT01", "MH", "01-701-1383", 8, "", "VERBATIM_0936", "HYSTERECTOMY", "HYSTERECTOMY", "HLT_0675", "HLGT_0657", "HISTORICAL DIAGNOSIS", "SURGICAL AND MEDICAL PROCEDURES", "", 1.0, "SCREENING 1", -7, "2013-01-22", "1977", -13], [476, "CDISCPILOT01", "MH", "01-701-1383", 4, "", "VERBATIM_0229", "MASTECTOMY", "MASTECTOMY", "HLT_0729", "HLGT_0669", "HISTORICAL DIAGNOSIS", "SURGICAL AND MEDICAL PROCEDURES", "", 1.0, "SCREENING 1", -7, "2013-01-22", "1966", -13], [477, "CDISCPILOT01", "MH", "01-701-1383", 11, "", "VERBATIM_1555", "PYELONEPHRITIS", "PYELONEPHRITIS", "HLT_0307", "HLGT_0040", "HISTORICAL DIAGNOSIS", "INFECTIONS AND INFESTATIONS", "", 1.0, "SCREENING 1", -7, "2013-01-22", "1988", -13], [478, "CDISCPILOT01", "MH", "01-701-1383", 12, "", "VERBATIM_1769", "SINUSITIS", "SINUSITIS", "HLT_0262", "HLGT_0249", "HISTORICAL DIAGNOSIS", "INFECTIONS AND INFESTATIONS", "", 1.0, "SCREENING 1", -7, "2013-01-22", "2006", -13], [479, "CDISCPILOT01", "MH", "01-701-1383", 2, "E02", "VERBATIM_1065", "TINNITUS", "TINNITUS", "HLT_0570", "HLGT_0180", "SIGNIFICANT PRE-EXISTING CONDITION", "EAR AND LABYRINTH DISORDERS", "MILD", 1.0, "SCREENING 1", -7, "2013-01-22", "", -13], [480, "CDISCPILOT01", "MH", "01-701-1387", 11, "", "ALZHEIMER'S DISEASE", "", "", "", "", "PRIMARY DIAGNOSIS", "", "", 1.0, "SCREENING 1", -7, "2014-02-23", "2003-08-17", -17], [481, "CDISCPILOT01", "MH", "01-701-1387", 13, "", "VERBATIM_0951", "BASAL CELL CARCINOMA", "BASAL CELL CARCINOMA", "HLT_0332", "HLGT_0328", "HISTORICAL DIAGNOSIS", "NEOPLASMS BENIGN, MALIGNANT AND UNSPECIFIED (INCL CYSTS AND POLYPS)", "", 1.0, "SCREENING 1", -7, "2014-02-23", "2011-03", -17], [482, "CDISCPILOT01", "MH", "01-701-1387", 5, "E05", "VERBATIM_1340", "CATARACTS", "CATARACT", "HLT_0090", "HLGT_0498", "SIGNIFICANT PRE-EXISTING CONDITION", "EYE DISORDERS", "MILD", 1.0, "SCREENING 1", -7, "2014-02-23", "", -17], [483, "CDISCPILOT01", "MH", "01-701-1387", 4, "E07", "VERBATIM_1022", "DENTURE WEARER", "DENTURE WEARER", "HLT_0246", "HLGT_0763", "SIGNIFICANT PRE-EXISTING CONDITION", "SOCIAL CIRCUMSTANCES", "MILD", 1.0, "SCREENING 1", -7, "2014-02-23", "", -17], [484, "CDISCPILOT01", "MH", "01-701-1387", 12, "", "VERBATIM_0982", "FELT FAINT", "DIZZINESS", "HLT_0619", "HLGT_0751", "HISTORICAL DIAGNOSIS", "NERVOUS SYSTEM DISORDERS", "", 1.0, "SCREENING 1", -7, "2014-02-23", "2011", -17], [485, "CDISCPILOT01", "MH", "01-701-1387", 3, "E02", "VERBATIM_0958", "DIZZINESS POSTURAL", "DIZZINESS POSTURAL", "HLT_0214", "HLGT_0070", "SIGNIFICANT PRE-EXISTING CONDITION", "NERVOUS SYSTEM DISORDERS", "MILD", 1.0, "SCREENING 1", -7, "2014-02-23", "", -17], [486, "CDISCPILOT01", "MH", "01-701-1387", 7, "E03", "VERBATIM_1732", "NUMBNESS IN HAND", "HYPOAESTHESIA", "HLT_0014", "HLGT_0528", "SIGNIFICANT PRE-EXISTING CONDITION", "NERVOUS SYSTEM DISORDERS", "MILD", 1.0, "SCREENING 1", -7, "2014-02-23", "", -17], [487, "CDISCPILOT01", "MH", "01-701-1387", 6, "E01", "VERBATIM_1392", "ANKLE EDEMA", "OEDEMA PERIPHERAL", "HLT_0661", "HLGT_0137", "SIGNIFICANT PRE-EXISTING CONDITION", "GENERAL DISORDERS AND ADMINISTRATION SITE CONDITIONS", "MILD", 1.0, "SCREENING 1", -7, "2014-02-23", "", -17], [488, "CDISCPILOT01", "MH", "01-701-1387", 9, "", "VERBATIM_0919", "PNEUMONIA", "PNEUMONIA", "HLT_0251", "HLGT_0671", "HISTORICAL DIAGNOSIS", "INFECTIONS AND INFESTATIONS", "", 1.0, "SCREENING 1", -7, "2014-02-23", "1940", -17], [489, "CDISCPILOT01", "MH", "01-701-1387", 1, "E04", "VERBATIM_0261", "POLYARTHRITIS", "POLYARTHRITIS", "HLT_0134", "HLGT_0167", "SIGNIFICANT PRE-EXISTING CONDITION", "MUSCULOSKELETAL AND CONNECTIVE TISSUE DISORDERS", "MILD", 1.0, "SCREENING 1", -7, "2014-02-23", "", -17], [490, "CDISCPILOT01", "MH", "01-701-1387", 2, "E06", "VERBATIM_0827", "SNIFFLES", "RHINORRHOEA", "HLT_0635", "HLGT_0460", "SIGNIFICANT PRE-EXISTING CONDITION", "RESPIRATORY, THORACIC AND MEDIASTINAL DISORDERS", "MILD", 1.0, "SCREENING 1", -7, "2014-02-23", "", -17], [491, "CDISCPILOT01", "MH", "01-701-1387", 8, "", "VERBATIM_1716", "TONSILLECTOMY", "TONSILLECTOMY", "HLT_0202", "HLGT_0199", "HISTORICAL DIAGNOSIS", "SURGICAL AND MEDICAL PROCEDURES", "", 1.0, "SCREENING 1", -7, "2014-02-23", "1936", -17], [492, "CDISCPILOT01", "MH", "01-701-1387", 10, "", "VERBATIM_1738", "TOOTH EXTRACTION", "TOOTH EXTRACTION", "HLT_0209", "HLGT_0762", "HISTORICAL DIAGNOSIS", "SURGICAL AND MEDICAL PROCEDURES", "", 1.0, "SCREENING 1", -7, "2014-02-23", "2003", -17], [493, "CDISCPILOT01", "MH", "01-701-1392", 5, "", "ALZHEIMER'S DISEASE", "", "", "", "", "PRIMARY DIAGNOSIS", "", "", 1.0, "SCREENING 1", -7, "2012-10-17", "2010-04-25", -11], [494, "CDISCPILOT01", "MH", "01-701-1392", 3, "E02", "VERBATIM_1751", "ASTIGMATISM", "ASTIGMATISM", "HLT_0494", "HLGT_0369", "SIGNIFICANT PRE-EXISTING CONDITION", "EYE DISORDERS", "MILD", 1.0, "SCREENING 1", -7, "2012-10-17", "", -11], [495, "CDISCPILOT01", "MH", "01-701-1392", 2, "E03", "VERBATIM_1312", "DENTURE WEARER", "DENTURE WEARER", "HLT_0246", "HLGT_0763", "SIGNIFICANT PRE-EXISTING CONDITION", "SOCIAL CIRCUMSTANCES", "MILD", 1.0, "SCREENING 1", -7, "2012-10-17", "", -11], [496, "CDISCPILOT01", "MH", "01-701-1392", 1, "E01", "VERBATIM_0342", "HYPERTENSION", "HYPERTENSION", "HLT_0228", "HLGT_0476", "SIGNIFICANT PRE-EXISTING CONDITION", "VASCULAR DISORDERS", "MILD", 1.0, "SCREENING 1", -7, "2012-10-17", "", -11], [497, "CDISCPILOT01", "MH", "01-701-1392", 4, "", "VERBATIM_0626", "TOOTH EXTRACTION", "TOOTH EXTRACTION", "HLT_0209", "HLGT_0762", "HISTORICAL DIAGNOSIS", "SURGICAL AND MEDICAL PROCEDURES", "", 1.0, "SCREENING 1", -7, "2012-10-17", "2001", -11], [498, "CDISCPILOT01", "MH", "01-701-1392", 6, "", "VERBATIM_0211", "TRANSURETHRAL PROSTATECTOMY", "TRANSURETHRAL PROSTATECTOMY", "HLT_0551", "HLGT_0320", "HISTORICAL DIAGNOSIS", "SURGICAL AND MEDICAL PROCEDURES", "", 1.0, "SCREENING 1", -7, "2012-10-17", "2011-12-28", -11], [499, "CDISCPILOT01", "MH", "01-701-1415", 12, "", "ALZHEIMER'S DISEASE", "", "", "", "", "PRIMARY DIAGNOSIS", "", "", 1.0, "SCREENING 1", -7, "2013-09-15", "1998-06-13", -8], [500, "CDISCPILOT01", "MH", "01-701-1415", 17, "", "VERBATIM_0187", "BASAL CELL CARCINOMA", "BASAL CELL CARCINOMA", "HLT_0332", "HLGT_0328", "HISTORICAL DIAGNOSIS", "NEOPLASMS BENIGN, MALIGNANT AND UNSPECIFIED (INCL CYSTS AND POLYPS)", "", 1.0, "SCREENING 1", -7, "2013-09-15", "2013-06-13", -8], [501, "CDISCPILOT01", "MH", "01-701-1415", 5, "E05", "VERBATIM_1355", "BUNION", "BUNION", "HLT_0325", "HLGT_0256", "SIGNIFICANT PRE-EXISTING CONDITION", "MUSCULOSKELETAL AND CONNECTIVE TISSUE DISORDERS", "MILD", 1.0, "SCREENING 1", -7, "2013-09-15", "", -8], [502, "CDISCPILOT01", "MH", "01-701-1415", 19, "", "VERBATIM_0767", "BRUISING OF ARM", "CONTUSION", "HLT_0713", "HLGT_0381", "HISTORICAL DIAGNOSIS", "INJURY, POISONING AND PROCEDURAL COMPLICATIONS", "", 1.0, "SCREENING 1", -7, "2013-09-15", "2013-08-10", -8], [503, "CDISCPILOT01", "MH", "01-701-1415", 15, "", "VERBATIM_1023", "DIVERTICULOSIS", "DIVERTICULUM", "HLT_0069", "HLGT_0141", "HISTORICAL DIAGNOSIS", "GASTROINTESTINAL DISORDERS", "", 1.0, "SCREENING 1", -7, "2013-09-15", "2012", -8], [504, "CDISCPILOT01", "MH", "01-701-1415", 11, "", "VERBATIM_1638", "BREATH SHORTNESS", "DYSPNOEA", "HLT_0296", "HLGT_0255", "HISTORICAL DIAGNOSIS", "RESPIRATORY, THORACIC AND MEDIASTINAL DISORDERS", "", 1.0, "SCREENING 1", -7, "2013-09-15", "1986", -8], [505, "CDISCPILOT01", "MH", "01-701-1415", 3, "E01", "VERBATIM_1296", "DYSPNEA EXERTIONAL", "DYSPNOEA EXERTIONAL", "HLT_0465", "HLGT_0475", "SIGNIFICANT PRE-EXISTING CONDITION", "RESPIRATORY, THORACIC AND MEDIASTINAL DISORDERS", "MILD", 1.0, "SCREENING 1", -7, "2013-09-15", "", -8], [506, "CDISCPILOT01", "MH", "01-701-1415", 1, "E08", "VERBATIM_0524", "EPISTAXIS", "EPISTAXIS", "HLT_0386", "HLGT_0577", "SIGNIFICANT PRE-EXISTING CONDITION", "RESPIRATORY, THORACIC AND MEDIASTINAL DISORDERS", "MILD", 1.0, "SCREENING 1", -7, "2013-09-15", "", -8], [507, "CDISCPILOT01", "MH", "01-701-1415", 14, "", "VERBATIM_1548", "BORDERLINE DIABETES", "GLUCOSE TOLERANCE IMPAIRED", "HLT_0063", "HLGT_0286", "HISTORICAL DIAGNOSIS", "METABOLISM AND NUTRITION DISORDERS", "", 1.0, "SCREENING 1", -7, "2013-09-15", "2010", -8], [508, "CDISCPILOT01", "MH", "01-701-1415", 2, "E02", "VERBATIM_0929", "HEADACHE", "HEADACHE", "HLT_0064", "HLGT_0344", "SIGNIFICANT PRE-EXISTING CONDITION", "NERVOUS SYSTEM DISORDERS", "MILD", 1.0, "SCREENING 1", -7, "2013-09-15", "", -8], [509, "CDISCPILOT01", "MH", "01-701-1415", 8, "E06", "VERBATIM_1683", "HYPEROPIA", "HYPERMETROPIA", "HLT_0546", "HLGT_0646", "SIGNIFICANT PRE-EXISTING CONDITION", "EYE DISORDERS", "MILD", 1.0, "SCREENING 1", -7, "2013-09-15", "", -8], [510, "CDISCPILOT01", "MH", "01-701-1415", 13, "", "VERBATIM_0472", "INGUINAL HERNIA", "INGUINAL HERNIA", "HLT_0388", "HLGT_0368", "HISTORICAL DIAGNOSIS", "GASTROINTESTINAL DISORDERS", "", 1.0, "SCREENING 1", -7, "2013-09-15", "2008", -8], [511, "CDISCPILOT01", "MH", "01-701-1415", 7, "E07", "VERBATIM_1530", "MACULAR DEGENERATION", "MACULAR DEGENERATION", "HLT_0401", "HLGT_0370", "SIGNIFICANT PRE-EXISTING CONDITION", "EYE DISORDERS", "MILD", 1.0, "SCREENING 1", -7, "2013-09-15", "", -8], [512, "CDISCPILOT01", "MH", "01-701-1415", 10, "", "VERBATIM_1334", "MIGRAINE", "MIGRAINE", "HLT_0547", "HLGT_0317", "HISTORICAL DIAGNOSIS", "NERVOUS SYSTEM DISORDERS", "", 1.0, "SCREENING 1", -7, "2013-09-15", "1944", -8], [513, "CDISCPILOT01", "MH", "01-701-1415", 21, "", "VERBATIM_1252", "COLD", "NASOPHARYNGITIS", "HLT_0036", "HLGT_0709", "HISTORICAL DIAGNOSIS", "INFECTIONS AND INFESTATIONS", "", 1.0, "SCREENING 1", -7, "2013-09-15", "2013-08-22", -8], [514, "CDISCPILOT01", "MH", "01-701-1415", 16, "", "VERBATIM_1284", "INFECTION OF THE OUTER EAR", "OTITIS EXTERNA", "HLT_0673", "HLGT_0404", "HISTORICAL DIAGNOSIS", "INFECTIONS AND INFESTATIONS", "", 1.0, "SCREENING 1", -7, "2013-09-15", "2012-01-23", -8], [515, "CDISCPILOT01", "MH", "01-701-1415", 18, "", "VERBATIM_0048", "PAIN TRAUMA ACTIVATED", "PAIN TRAUMA ACTIVATED", "HLT_0579", "HLGT_0732", "HISTORICAL DIAGNOSIS", "INJURY, POISONING AND PROCEDURAL COMPLICATIONS", "", 1.0, "SCREENING 1", -7, "2013-09-15", "2013-08-10", -8], [516, "CDISCPILOT01", "MH", "01-701-1415", 4, "E03", "VERBATIM_1311", "PARESTHESIA HAND", "PARAESTHESIA", "HLT_0481", "HLGT_0534", "SIGNIFICANT PRE-EXISTING CONDITION", "NERVOUS SYSTEM DISORDERS", "MILD", 1.0, "SCREENING 1", -7, "2013-09-15", "", -8], [517, "CDISCPILOT01", "MH", "01-701-1415", 6, "E04", "VERBATIM_1461", "ARTHRITIS RHEUMATOID", "RHEUMATOID ARTHRITIS", "HLT_0390", "HLGT_0743", "SIGNIFICANT PRE-EXISTING CONDITION", "MUSCULOSKELETAL AND CONNECTIVE TISSUE DISORDERS", "MILD", 1.0, "SCREENING 1", -7, "2013-09-15", "", -8], [518, "CDISCPILOT01", "MH", "01-701-1415", 20, "", "VERBATIM_0975", "LACERATION OF ARM", "SKIN LACERATION", "HLT_0075", "HLGT_0118", "HISTORICAL DIAGNOSIS", "INJURY, POISONING AND PROCEDURAL COMPLICATIONS", "", 1.0, "SCREENING 1", -7, "2013-09-15", "2013-08-10", -8], [519, "CDISCPILOT01", "MH", "01-701-1415", 9, "", "VERBATIM_1716", "TONSILLECTOMY", "TONSILLECTOMY", "HLT_0202", "HLGT_0199", "HISTORICAL DIAGNOSIS", "SURGICAL AND MEDICAL PROCEDURES", "", 1.0, "SCREENING 1", -7, "2013-09-15", "1940", -8], [520, "CDISCPILOT01", "MH", "01-701-1429", 3, "", "ALZHEIMER'S DISEASE", "", "", "", "", "PRIMARY DIAGNOSIS", "", "", 1.0, "SCREENING 1", -7, "2013-02-25", "2008-06-17", -22], [521, "CDISCPILOT01", "MH", "01-701-1429", 2, "E02", "VERBATIM_1604", "BENIGN NEOPLASM OF EYE", "BENIGN NEOPLASM OF EYE", "HLT_0038", "HLGT_0014", "SIGNIFICANT PRE-EXISTING CONDITION", "NEOPLASMS BENIGN, MALIGNANT AND UNSPECIFIED (INCL CYSTS AND POLYPS)", "MODERATE", 1.0, "SCREENING 1", -7, "2013-02-25", "", -22], [522, "CDISCPILOT01", "MH", "01-701-1429", 4, "", "VERBATIM_0267", "HEMORRHOIDS", "HAEMORRHOIDS", "HLT_0681", "HLGT_0485", "HISTORICAL DIAGNOSIS", "GASTROINTESTINAL DISORDERS", "", 1.0, "SCREENING 1", -7, "2013-02-25", "2009", -22], [523, "CDISCPILOT01", "MH", "01-701-1429", 1, "E01", "VERBATIM_0929", "HEADACHE", "HEADACHE", "HLT_0064", "HLGT_0344", "SIGNIFICANT PRE-EXISTING CONDITION", "NERVOUS SYSTEM DISORDERS", "MILD", 1.0, "SCREENING 1", -7, "2013-02-25", "", -22], [524, "CDISCPILOT01", "MH", "01-701-1440", 6, "", "ALZHEIMER'S DISEASE", "", "", "", "", "PRIMARY DIAGNOSIS", "", "", 1.0, "SCREENING 1", -7, "2013-07-24", "2011-04-07", -15], [525, "CDISCPILOT01", "MH", "01-701-1440", 2, "", "VERBATIM_0117", "CERVICAL VERTEBRAL FRACTURE", "CERVICAL VERTEBRAL FRACTURE", "HLT_0577", "HLGT_0777", "HISTORICAL DIAGNOSIS", "INJURY, POISONING AND PROCEDURAL COMPLICATIONS", "", 1.0, "SCREENING 1", -7, "2013-07-24", "1995", -15], [526, "CDISCPILOT01", "MH", "01-701-1440", 3, "", "VERBATIM_1147", "HEMIPLEGIA (LEFT)", "HEMIPLEGIA", "HLT_0099", "HLGT_0678", "HISTORICAL DIAGNOSIS", "NERVOUS SYSTEM DISORDERS", "", 1.0, "SCREENING 1", -7, "2013-07-24", "1995", -15], [527, "CDISCPILOT01", "MH", "01-701-1440", 4, "", "VERBATIM_1237", "LOSS OF CONSCIOUSNESS", "LOSS OF CONSCIOUSNESS", "HLT_0529", "HLGT_0595", "HISTORICAL DIAGNOSIS", "NERVOUS SYSTEM DISORDERS", "", 1.0, "SCREENING 1", -7, "2013-07-24", "1995", -15], [528, "CDISCPILOT01", "MH", "01-701-1440", 1, "E01", "VERBATIM_0507", "PRESBYOPIA", "PRESBYOPIA", "HLT_0230", "HLGT_0759", "SIGNIFICANT PRE-EXISTING CONDITION", "EYE DISORDERS", "MILD", 1.0, "SCREENING 1", -7, "2013-07-24", "", -15], [529, "CDISCPILOT01", "MH", "01-701-1440", 5, "", "VERBATIM_1654", "FUSION OF VERTEBRA", "SPINAL FUSION SURGERY", "HLT_0719", "HLGT_0105", "HISTORICAL DIAGNOSIS", "SURGICAL AND MEDICAL PROCEDURES", "", 1.0, "SCREENING 1", -7, "2013-07-24", "1995", -15], [530, "CDISCPILOT01", "MH", "01-701-1440", 7, "", "VERBATIM_0293", "WEIGHT LOSS", "WEIGHT DECREASED", "HLT_0158", "HLGT_0778", "HISTORICAL DIAGNOSIS", "INVESTIGATIONS", "", 1.0, "SCREENING 1", -7, "2013-07-24", "2013-05", -15], [531, "CDISCPILOT01", "MH", "01-701-1442", 4, "", "ALZHEIMER'S DISEASE", "", "", "", "", "PRIMARY DIAGNOSIS", "", "", 1.0, "SCREENING 1", -7, "2013-10-17", "2006-02-20", -9], [532, "CDISCPILOT01", "MH", "01-701-1442", 1, "E01", "VERBATIM_0301", "HEADACHE", "HEADACHE", "HLT_0064", "HLGT_0344", "SIGNIFICANT PRE-EXISTING CONDITION", "NERVOUS SYSTEM DISORDERS", "MILD", 1.0, "SCREENING 1", -7, "2013-10-17", "", -9], [533, "CDISCPILOT01", "MH", "01-701-1442", 3, "", "VERBATIM_0936", "HYSTERECTOMY", "HYSTERECTOMY", "HLT_0675", "HLGT_0657", "HISTORICAL DIAGNOSIS", "SURGICAL AND MEDICAL PROCEDURES", "", 1.0, "SCREENING 1", -7, "2013-10-17", "1997", -9], [534, "CDISCPILOT01", "MH", "01-701-1442", 2, "E02", "VERBATIM_1532", "MYOPIA", "MYOPIA", "HLT_0282", "HLGT_0271", "SIGNIFICANT PRE-EXISTING CONDITION", "EYE DISORDERS", "MILD", 1.0, "SCREENING 1", -7, "2013-10-17", "", -9], [535, "CDISCPILOT01", "MH", "01-701-1444", 13, "", "ALZHEIMER'S DISEASE", "", "", "", "", "PRIMARY DIAGNOSIS", "", "", 1.0, "SCREENING 1", -7, "2012-12-31", "2008-05-21", -5], [536, "CDISCPILOT01", "MH", "01-701-1444", 22, "", "VERBATIM_0554", "ABDOMINAL PAIN", "ABDOMINAL PAIN", "HLT_0217", "HLGT_0419", "HISTORICAL DIAGNOSIS", "GASTROINTESTINAL DISORDERS", "", 1.0, "SCREENING 1", -7, "2012-12-31", "2012", -5], [537, "CDISCPILOT01", "MH", "01-701-1444", 1, "E03", "VERBATIM_0255", "ENLARGED PROSTATE", "BENIGN PROSTATIC HYPERPLASIA", "HLT_0215", "HLGT_0568", "SIGNIFICANT PRE-EXISTING CONDITION", "REPRODUCTIVE SYSTEM AND BREAST DISORDERS", "MILD", 1.0, "SCREENING 1", -7, "2012-12-31", "", -5], [538, "CDISCPILOT01", "MH", "01-701-1444", 21, "", "VERBATIM_0517", "CHEST PAIN", "CHEST PAIN", "HLT_0717", "HLGT_0195", "HISTORICAL DIAGNOSIS", "GENERAL DISORDERS AND ADMINISTRATION SITE CONDITIONS", "", 1.0, "SCREENING 1", -7, "2012-12-31", "2012", -5], [539, "CDISCPILOT01", "MH", "01-701-1444", 16, "", "VERBATIM_1324", "CHOLECYSTECTOMY", "CHOLECYSTECTOMY", "HLT_0149", "HLGT_0074", "HISTORICAL DIAGNOSIS", "SURGICAL AND MEDICAL PROCEDURES", "", 1.0, "SCREENING 1", -7, "2012-12-31", "2009", -5], [540, "CDISCPILOT01", "MH", "01-701-1444", 15, "", "VERBATIM_0539", "GALLBLADDER STONES", "CHOLELITHIASIS", "HLT_0084", "HLGT_0177", "HISTORICAL DIAGNOSIS", "HEPATOBILIARY DISORDERS", "", 1.0, "SCREENING 1", -7, "2012-12-31", "2009", -5], [541, "CDISCPILOT01", "MH", "01-701-1444", 2, "E10", "VERBATIM_0443", "CONSTIPATION", "CONSTIPATION", "HLT_0402", "HLGT_0635", "SIGNIFICANT PRE-EXISTING CONDITION", "GASTROINTESTINAL DISORDERS", "MILD", 1.0, "SCREENING 1", -7, "2012-12-31", "", -5], [542, "CDISCPILOT01", "MH", "01-701-1444", 7, "E06", "VERBATIM_0978", "HEARING LOSS BILATERAL", "DEAFNESS BILATERAL", "HLT_0567", "HLGT_0426", "SIGNIFICANT PRE-EXISTING CONDITION", "EAR AND LABYRINTH DISORDERS", "MILD", 1.0, "SCREENING 1", -7, "2012-12-31", "", -5], [543, "CDISCPILOT01", "MH", "01-701-1444", 5, "E08", "VERBATIM_0771", "DENTAL OPERATION", "DENTAL OPERATION", "HLT_0341", "HLGT_0059", "SIGNIFICANT PRE-EXISTING CONDITION", "SURGICAL AND MEDICAL PROCEDURES", "MILD", 1.0, "SCREENING 1", -7, "2012-12-31", "", -5], [544, "CDISCPILOT01", "MH", "01-701-1444", 20, "", "VERBATIM_0721", "DUODENAL ULCER", "DUODENAL ULCER", "HLT_0322", "HLGT_0349", "HISTORICAL DIAGNOSIS", "GASTROINTESTINAL DISORDERS", "", 1.0, "SCREENING 1", -7, "2012-12-31", "2011-11-10", -5], [545, "CDISCPILOT01", "MH", "01-701-1444", 23, "", "VERBATIM_0800", "INDIGESTION", "DYSPEPSIA", "HLT_0244", "HLGT_0716", "HISTORICAL DIAGNOSIS", "GASTROINTESTINAL DISORDERS", "", 1.0, "SCREENING 1", -7, "2012-12-31", "2012", -5], [546, "CDISCPILOT01", "MH", "01-701-1444", 11, "", "VERBATIM_1187", "HEMORRHOIDECTOMY", "HAEMORRHOID OPERATION", "HLT_0300", "HLGT_0468", "HISTORICAL DIAGNOSIS", "SURGICAL AND MEDICAL PROCEDURES", "", 1.0, "SCREENING 1", -7, "2012-12-31", "1978", -5], [547, "CDISCPILOT01", "MH", "01-701-1444", 9, "E02", "VERBATIM_1351", "EXTERNAL HEMORRHOIDS", "HAEMORRHOIDS", "HLT_0681", "HLGT_0485", "SIGNIFICANT PRE-EXISTING CONDITION", "GASTROINTESTINAL DISORDERS", "MILD", 1.0, "SCREENING 1", -7, "2012-12-31", "", -5], [548, "CDISCPILOT01", "MH", "01-701-1444", 18, "", "VERBATIM_0929", "HEADACHE", "HEADACHE", "HLT_0064", "HLGT_0344", "HISTORICAL DIAGNOSIS", "NERVOUS SYSTEM DISORDERS", "", 1.0, "SCREENING 1", -7, "2012-12-31", "2011", -5], [549, "CDISCPILOT01", "MH", "01-701-1444", 6, "E04", "VERBATIM_0929", "HEADACHE", "HEADACHE", "HLT_0064", "HLGT_0344", "SIGNIFICANT PRE-EXISTING CONDITION", "NERVOUS SYSTEM DISORDERS", "MILD", 1.0, "SCREENING 1", -7, "2012-12-31", "", -5], [550, "CDISCPILOT01", "MH", "01-701-1444", 14, "", "VERBATIM_0714", "SHINGLES", "HERPES ZOSTER", "HLT_0460", "HLGT_0239", "HISTORICAL DIAGNOSIS", "INFECTIONS AND INFESTATIONS", "", 1.0, "SCREENING 1", -7, "2012-12-31", "2008-08", -5], [551, "CDISCPILOT01", "MH", "01-701-1444", 4, "E01", "VERBATIM_0699", "HIATAL HERNIA", "HIATUS HERNIA", "HLT_0159", "HLGT_0109", "SIGNIFICANT PRE-EXISTING CONDITION", "GASTROINTESTINAL DISORDERS", "MILD", 1.0, "SCREENING 1", -7, "2012-12-31", "", -5], [552, "CDISCPILOT01", "MH", "01-701-1444", 10, "E07", "VERBATIM_1683", "HYPEROPIA", "HYPERMETROPIA", "HLT_0546", "HLGT_0646", "SIGNIFICANT PRE-EXISTING CONDITION", "EYE DISORDERS", "MILD", 1.0, "SCREENING 1", -7, "2012-12-31", "", -5], [553, "CDISCPILOT01", "MH", "01-701-1444", 17, "", "VERBATIM_0563", "INTESTINAL POLYP", "INTESTINAL POLYP", "HLT_0429", "HLGT_0302", "HISTORICAL DIAGNOSIS", "GASTROINTESTINAL DISORDERS", "", 1.0, "SCREENING 1", -7, "2012-12-31", "2011", -5], [554, "CDISCPILOT01", "MH", "01-701-1444", 19, "", "VERBATIM_1356", "INTESTINAL POLYPECTOMY", "INTESTINAL POLYPECTOMY", "HLT_0223", "HLGT_0386", "HISTORICAL DIAGNOSIS", "SURGICAL AND MEDICAL PROCEDURES", "", 1.0, "SCREENING 1", -7, "2012-12-31", "2011", -5], [555, "CDISCPILOT01", "MH", "01-701-1444", 3, "E05", "VERBATIM_0560", "ELBOW OSTEOARTHRITIS", "OSTEOARTHRITIS", "HLT_0247", "HLGT_0462", "SIGNIFICANT PRE-EXISTING CONDITION", "MUSCULOSKELETAL AND CONNECTIVE TISSUE DISORDERS", "MILD", 1.0, "SCREENING 1", -7, "2012-12-31", "", -5], [556, "CDISCPILOT01", "MH", "01-701-1444", 8, "E09", "VERBATIM_1337", "SHOULDER OSTEOARTHRITIS", "OSTEOARTHRITIS", "HLT_0247", "HLGT_0462", "SIGNIFICANT PRE-EXISTING CONDITION", "MUSCULOSKELETAL AND CONNECTIVE TISSUE DISORDERS", "MILD", 1.0, "SCREENING 1", -7, "2012-12-31", "", -5], [557, "CDISCPILOT01", "MH", "01-701-1444", 24, "", "VERBATIM_0250", "RECTAL BLEEDING", "RECTAL HAEMORRHAGE", "HLT_0353", "HLGT_0755", "HISTORICAL DIAGNOSIS", "GASTROINTESTINAL DISORDERS", "", 1.0, "SCREENING 1", -7, "2012-12-31", "2012-11", -5], [558, "CDISCPILOT01", "MH", "01-701-1444", 12, "", "VERBATIM_1692", "VASECTOMY", "VASECTOMY", "HLT_0108", "HLGT_0517", "HISTORICAL DIAGNOSIS", "SURGICAL AND MEDICAL PROCEDURES", "", 1.0, "SCREENING 1", -7, "2012-12-31", "1986", -5], [559, "CDISCPILOT01", "MH", "01-702-1082", 3, "", "ALZHEIMER'S DISEASE", "", "", "", "", "PRIMARY DIAGNOSIS", "", "", 1.0, "SCREENING 1", -7, "2013-07-03", "2007-05-17", -23], [560, "CDISCPILOT01", "MH", "01-702-1082", 2, "E05", "VERBATIM_1100", "AORTIC STENOSIS", "AORTIC STENOSIS", "HLT_0682", "HLGT_0353", "SIGNIFICANT PRE-EXISTING CONDITION", "VASCULAR DISORDERS", "MILD", 1.0, "SCREENING 1", -7, "2013-07-03", "", -23], [561, "CDISCPILOT01", "MH", "01-702-1082", 1, "E01", "VERBATIM_1072", "CARDIAC PACEMAKER INSERTION", "CARDIAC PACEMAKER INSERTION", "HLT_0474", "HLGT_0501", "SIGNIFICANT PRE-EXISTING CONDITION", "SURGICAL AND MEDICAL PROCEDURES", "MILD", 1.0, "SCREENING 1", -7, "2013-07-03", "", -23], [562, "CDISCPILOT01", "MH", "01-703-1042", 5, "", "ALZHEIMER'S DISEASE", "", "", "", "", "PRIMARY DIAGNOSIS", "", "", 1.0, "SCREENING 1", -7, "2013-02-23", "2008-07-23", -7], [563, "CDISCPILOT01", "MH", "01-703-1042", 4, "", "VERBATIM_1084", "LUNG ABSCESS DRAINAGE", "ABSCESS DRAINAGE", "HLT_0316", "HLGT_0416", "HISTORICAL DIAGNOSIS", "SURGICAL AND MEDICAL PROCEDURES", "", 1.0, "SCREENING 1", -7, "2013-02-23", "1997", -7], [564, "CDISCPILOT01", "MH", "01-703-1042", 3, "E03", "VERBATIM_1309", "ARTHRITIS", "ARTHRITIS", "HLT_0019", "HLGT_0587", "SIGNIFICANT PRE-EXISTING CONDITION", "MUSCULOSKELETAL AND CONNECTIVE TISSUE DISORDERS", "MILD", 1.0, "SCREENING 1", -7, "2013-02-23", "", -7], [565, "CDISCPILOT01", "MH", "01-703-1042", 2, "E01", "VERBATIM_0409", "CORONARY ARTERY DISEASE", "CORONARY ARTERY DISEASE", "HLT_0261", "HLGT_0248", "SIGNIFICANT PRE-EXISTING CONDITION", "CARDIAC DISORDERS", "MILD", 1.0, "SCREENING 1", -7, "2013-02-23", "", -7], [566, "CDISCPILOT01", "MH", "01-703-1042", 1, "E02", "VERBATIM_0087", "EMPHYSEMA", "EMPHYSEMA", "HLT_0698", "HLGT_0221", "SIGNIFICANT PRE-EXISTING CONDITION", "RESPIRATORY, THORACIC AND MEDIASTINAL DISORDERS", "MILD", 1.0, "SCREENING 1", -7, "2013-02-23", "", -7], [567, "CDISCPILOT01", "MH", "01-703-1042", 6, "", "VERBATIM_1169", "INTESTINAL POLYPECTOMY", "INTESTINAL POLYPECTOMY", "HLT_0223", "HLGT_0386", "HISTORICAL DIAGNOSIS", "SURGICAL AND MEDICAL PROCEDURES", "", 1.0, "SCREENING 1", -7, "2013-02-23", "2009", -7], [568, "CDISCPILOT01", "MH", "01-703-1076", 5, "", "ALZHEIMER'S DISEASE", "", "", "", "", "PRIMARY DIAGNOSIS", "", "", 1.0, "SCREENING 1", -7, "2013-10-17", "2012-08-27", -8], [569, "CDISCPILOT01", "MH", "01-703-1076", 2, "E03", "VERBATIM_0308", "GLAUCOMA", "GLAUCOMA", "HLT_0556", "HLGT_0734", "SIGNIFICANT PRE-EXISTING CONDITION", "EYE DISORDERS", "MILD", 1.0, "SCREENING 1", -7, "2013-10-17", "", -8], [570, "CDISCPILOT01", "MH", "01-703-1076", 4, "E06", "VERBATIM_0980", "GOUT", "GOUT", "HLT_0396", "HLGT_0479", "SIGNIFICANT PRE-EXISTING CONDITION", "METABOLISM AND NUTRITION DISORDERS", "MILD", 1.0, "SCREENING 1", -7, "2013-10-17", "", -8], [571, "CDISCPILOT01", "MH", "01-703-1076", 1, "E05", "VERBATIM_0164", "HYPERCHOLESTEROLEMIA", "HYPERCHOLESTEROLAEMIA", "HLT_0025", "HLGT_0703", "SIGNIFICANT PRE-EXISTING CONDITION", "METABOLISM AND NUTRITION DISORDERS", "MILD", 1.0, "SCREENING 1", -7, "2013-10-17", "", -8], [572, "CDISCPILOT01", "MH", "01-703-1076", 3, "E04", "VERBATIM_0342", "HYPERTENSION", "HYPERTENSION", "HLT_0228", "HLGT_0476", "SIGNIFICANT PRE-EXISTING CONDITION", "VASCULAR DISORDERS", "MILD", 1.0, "SCREENING 1", -7, "2013-10-17", "", -8], [573, "CDISCPILOT01", "MH", "01-703-1086", 1, "", "ALZHEIMER'S DISEASE", "", "", "", "", "PRIMARY DIAGNOSIS", "", "", 1.0, "SCREENING 1", -7, "2012-08-22", "2011-04-27", -11], [574, "CDISCPILOT01", "MH", "01-703-1096", 2, "", "ALZHEIMER'S DISEASE", "", "", "", "", "PRIMARY DIAGNOSIS", "", "", 1.0, "SCREENING 1", -7, "2012-12-19", "2006-12-20", -37], [575, "CDISCPILOT01", "MH", "01-703-1096", 1, "E01", "VERBATIM_0786", "HEARING DECREASED", "HYPOACUSIS", "HLT_0174", "HLGT_0589", "SIGNIFICANT PRE-EXISTING CONDITION", "EAR AND LABYRINTH DISORDERS", "MILD", 1.0, "SCREENING 1", -7, "2012-12-19", "", -37], [576, "CDISCPILOT01", "MH", "01-703-1100", 6, "", "ALZHEIMER'S DISEASE", "", "", "", "", "PRIMARY DIAGNOSIS", "", "", 1.0, "SCREENING 1", -7, "2013-02-28", "2010-12-02", -13], [577, "CDISCPILOT01", "MH", "01-703-1100", 2, "E03", "VERBATIM_1437", "HEADACHE", "HEADACHE", "HLT_0064", "HLGT_0344", "SIGNIFICANT PRE-EXISTING CONDITION", "NERVOUS SYSTEM DISORDERS", "MILD", 1.0, "SCREENING 1", -7, "2013-02-28", "", -13], [578, "CDISCPILOT01", "MH", "01-703-1100", 1, "E02", "VERBATIM_0569", "HEARING DECREASED", "HYPOACUSIS", "HLT_0174", "HLGT_0589", "SIGNIFICANT PRE-EXISTING CONDITION", "EAR AND LABYRINTH DISORDERS", "MILD", 1.0, "SCREENING 1", -7, "2013-02-28", "", -13], [579, "CDISCPILOT01", "MH", "01-703-1100", 4, "E01", "VERBATIM_1512", "HYPOTHYROIDISM", "HYPOTHYROIDISM", "HLT_0454", "HLGT_0558", "SIGNIFICANT PRE-EXISTING CONDITION", "ENDOCRINE DISORDERS", "MILD", 1.0, "SCREENING 1", -7, "2013-02-28", "", -13], [580, "CDISCPILOT01", "MH", "01-703-1100", 3, "E05", "VERBATIM_1490", "MYOCARDIAL INFARCTION", "MYOCARDIAL INFARCTION", "HLT_0649", "HLGT_0688", "SIGNIFICANT PRE-EXISTING CONDITION", "CARDIAC DISORDERS", "MILD", 1.0, "SCREENING 1", -7, "2013-02-28", "", -13], [581, "CDISCPILOT01", "MH", "01-703-1100", 5, "E07", "VERBATIM_1652", "LEG EDEMA", "OEDEMA PERIPHERAL", "HLT_0661", "HLGT_0137", "SIGNIFICANT PRE-EXISTING CONDITION", "GENERAL DISORDERS AND ADMINISTRATION SITE CONDITIONS", "MILD", 1.0, "SCREENING 1", -7, "2013-02-28", "", -13], [582, "CDISCPILOT01", "MH", "01-703-1119", 6, "", "ALZHEIMER'S DISEASE", "", "", "", "", "PRIMARY DIAGNOSIS", "", "", 1.0, "SCREENING 1", -7, "2013-02-02", "2005-02-01", -18], [583, "CDISCPILOT01", "MH", "01-703-1119", 5, "", "VERBATIM_1440", "ANGIOPLASTY", "ANGIOPLASTY", "HLT_0263", "HLGT_0251", "HISTORICAL DIAGNOSIS", "SURGICAL AND MEDICAL PROCEDURES", "", 1.0, "SCREENING 1", -7, "2013-02-02", "2005", -18], [584, "CDISCPILOT01", "MH", "01-703-1119", 8, "", "VERBATIM_1440", "ANGIOPLASTY", "ANGIOPLASTY", "HLT_0263", "HLGT_0251", "HISTORICAL DIAGNOSIS", "SURGICAL AND MEDICAL PROCEDURES", "", 1.0, "SCREENING 1", -7, "2013-02-02", "2008", -18], [585, "CDISCPILOT01", "MH", "01-703-1119", 4, "", "VERBATIM_1345", "CARDIAC CATHETERIZATION", "CATHETERISATION CARDIAC", "HLT_0699", "HLGT_0454", "HISTORICAL DIAGNOSIS", "INVESTIGATIONS", "", 1.0, "SCREENING 1", -7, "2013-02-02", "2005", -18], [586, "CDISCPILOT01", "MH", "01-703-1119", 7, "", "VERBATIM_1345", "CARDIAC CATHETERIZATION", "CATHETERISATION CARDIAC", "HLT_0699", "HLGT_0454", "HISTORICAL DIAGNOSIS", "INVESTIGATIONS", "", 1.0, "SCREENING 1", -7, "2013-02-02", "2006", -18], [587, "CDISCPILOT01", "MH", "01-703-1119", 2, "E02", "VERBATIM_0409", "CORONARY ARTERY DISEASE", "CORONARY ARTERY DISEASE", "HLT_0261", "HLGT_0248", "SIGNIFICANT PRE-EXISTING CONDITION", "CARDIAC DISORDERS", "MILD", 1.0, "SCREENING 1", -7, "2013-02-02", "", -18], [588, "CDISCPILOT01", "MH", "01-703-1119", 9, "", "VERBATIM_1339", "FRACTURE TREATMENT", "FRACTURE TREATMENT", "HLT_0650", "HLGT_0620", "HISTORICAL DIAGNOSIS", "SURGICAL AND MEDICAL PROCEDURES", "", 1.0, "SCREENING 1", -7, "2013-02-02", "2011-12-02", -18], [589, "CDISCPILOT01", "MH", "01-703-1119", 1, "E01", "VERBATIM_0164", "HYPERCHOLESTEROLEMIA", "HYPERCHOLESTEROLAEMIA", "HLT_0025", "HLGT_0703", "SIGNIFICANT PRE-EXISTING CONDITION", "METABOLISM AND NUTRITION DISORDERS", "MILD", 1.0, "SCREENING 1", -7, "2013-02-02", "", -18], [590, "CDISCPILOT01", "MH", "01-703-1119", 3, "", "VERBATIM_0433", "RHEUMATIC FEVER", "RHEUMATIC FEVER", "HLT_0366", "HLGT_0428", "HISTORICAL DIAGNOSIS", "MUSCULOSKELETAL AND CONNECTIVE TISSUE DISORDERS", "", 1.0, "SCREENING 1", -7, "2013-02-02", "1941", -18], [591, "CDISCPILOT01", "MH", "01-703-1175", 6, "", "ALZHEIMER'S DISEASE", "", "", "", "", "PRIMARY DIAGNOSIS", "", "", 1.0, "SCREENING 1", -7, "2013-12-13", "2010-09-19", -7], [592, "CDISCPILOT01", "MH", "01-703-1175", 5, "E02", "VERBATIM_1410", "ATRIOVENTRICULAR BLOCK FIRST DEGREE", "ATRIOVENTRICULAR BLOCK FIRST DEGREE", "HLT_0419", "HLGT_0464", "SIGNIFICANT PRE-EXISTING CONDITION", "CARDIAC DISORDERS", "MILD", 1.0, "SCREENING 1", -7, "2013-12-13", "", -7], [593, "CDISCPILOT01", "MH", "01-703-1175", 3, "E04", "VERBATIM_0559", "LEFT ANTERIOR HEMIBLOCK", "BUNDLE BRANCH BLOCK LEFT", "HLT_0281", "HLGT_0721", "SIGNIFICANT PRE-EXISTING CONDITION", "CARDIAC DISORDERS", "MILD", 1.0, "SCREENING 1", -7, "2013-12-13", "", -7], [594, "CDISCPILOT01", "MH", "01-703-1175", 2, "E03", "VERBATIM_0353", "RIGHT BUNDLE BRANCH BLOCK", "BUNDLE BRANCH BLOCK RIGHT", "HLT_0751", "HLGT_0597", "SIGNIFICANT PRE-EXISTING CONDITION", "CARDIAC DISORDERS", "MILD", 1.0, "SCREENING 1", -7, "2013-12-13", "", -7], [595, "CDISCPILOT01", "MH", "01-703-1175", 4, "E06", "VERBATIM_0817", "LUNG NODULE", "LUNG NEOPLASM", "HLT_0483", "HLGT_0364", "SIGNIFICANT PRE-EXISTING CONDITION", "NEOPLASMS BENIGN, MALIGNANT AND UNSPECIFIED (INCL CYSTS AND POLYPS)", "MILD", 1.0, "SCREENING 1", -7, "2013-12-13", "", -7], [596, "CDISCPILOT01", "MH", "01-703-1175", 1, "E05", "VERBATIM_0042", "SEASONAL ALLERGY", "SEASONAL ALLERGY", "HLT_0714", "HLGT_0782", "SIGNIFICANT PRE-EXISTING CONDITION", "IMMUNE SYSTEM DISORDERS", "MILD", 1.0, "SCREENING 1", -7, "2013-12-13", "", -7], [597, "CDISCPILOT01", "MH", "01-703-1182", 8, "", "ALZHEIMER'S DISEASE", "", "", "", "", "PRIMARY DIAGNOSIS", "", "", 1.0, "SCREENING 1", -7, "2013-10-08", "2011-09-27", -9], [598, "CDISCPILOT01", "MH", "01-703-1182", 6, "", "VERBATIM_0614", "HEART BLOCK", "ATRIOVENTRICULAR BLOCK", "HLT_0389", "HLGT_0278", "HISTORICAL DIAGNOSIS", "CARDIAC DISORDERS", "", 1.0, "SCREENING 1", -7, "2013-10-08", "2007", -9], [599, "CDISCPILOT01", "MH", "01-703-1182", 7, "", "VERBATIM_0941", "CARDIAC PACEMAKER INSERTION", "CARDIAC PACEMAKER INSERTION", "HLT_0474", "HLGT_0501", "HISTORICAL DIAGNOSIS", "SURGICAL AND MEDICAL PROCEDURES", "", 1.0, "SCREENING 1", -7, "2013-10-08", "2007", -9], [600, "CDISCPILOT01", "MH", "01-703-1182", 2, "E03", "VERBATIM_0220", "CARDIAC PACEMAKER INSERTION", "CARDIAC PACEMAKER INSERTION", "HLT_0474", "HLGT_0501", "SIGNIFICANT PRE-EXISTING CONDITION", "SURGICAL AND MEDICAL PROCEDURES", "MILD", 1.0, "SCREENING 1", -7, "2013-10-08", "", -9], [601, "CDISCPILOT01", "MH", "01-703-1182", 1, "E06", "VERBATIM_0164", "HYPERCHOLESTEROLEMIA", "HYPERCHOLESTEROLAEMIA", "HLT_0025", "HLGT_0703", "SIGNIFICANT PRE-EXISTING CONDITION", "METABOLISM AND NUTRITION DISORDERS", "MILD", 1.0, "SCREENING 1", -7, "2013-10-08", "", -9], [602, "CDISCPILOT01", "MH", "01-703-1182", 3, "E02", "VERBATIM_0342", "HYPERTENSION", "HYPERTENSION", "HLT_0228", "HLGT_0476", "SIGNIFICANT PRE-EXISTING CONDITION", "VASCULAR DISORDERS", "MILD", 1.0, "SCREENING 1", -7, "2013-10-08", "", -9], [603, "CDISCPILOT01", "MH", "01-703-1182", 4, "E01", "VERBATIM_0584", "HEARING DECREASED", "HYPOACUSIS", "HLT_0174", "HLGT_0589", "SIGNIFICANT PRE-EXISTING CONDITION", "EAR AND LABYRINTH DISORDERS", "MODERATE", 1.0, "SCREENING 1", -7, "2013-10-08", "", -9], [604, "CDISCPILOT01", "MH", "01-703-1182", 5, "E04", "VERBATIM_1629", "SKIN RASH", "RASH", "HLT_0762", "HLGT_0198", "SIGNIFICANT PRE-EXISTING CONDITION", "SKIN AND SUBCUTANEOUS TISSUE DISORDERS", "MODERATE", 1.0, "SCREENING 1", -7, "2013-10-08", "", -9], [605, "CDISCPILOT01", "MH", "01-703-1197", 2, "", "ALZHEIMER'S DISEASE", "", "", "", "", "PRIMARY DIAGNOSIS", "", "", 1.0, "SCREENING 1", -7, "2013-06-01", "2012-01-11", -15], [606, "CDISCPILOT01", "MH", "01-703-1197", 1, "E01", "VERBATIM_0112", "EDEMA OF EXTREMITIES", "OEDEMA PERIPHERAL", "HLT_0661", "HLGT_0137", "SIGNIFICANT PRE-EXISTING CONDITION", "GENERAL DISORDERS AND ADMINISTRATION SITE CONDITIONS", "MILD", 1.0, "SCREENING 1", -7, "2013-06-01", "", -15], [607, "CDISCPILOT01", "MH", "01-703-1210", 5, "", "ALZHEIMER'S DISEASE", "", "", "", "", "PRIMARY DIAGNOSIS", "", "", 1.0, "SCREENING 1", -7, "2013-03-08", "2010-02-18", -8], [608, "CDISCPILOT01", "MH", "01-703-1210", 4, "", "VERBATIM_1591", "ORAL CANCER STAGE UNSPECIFIED", "LIP AND/OR ORAL CAVITY CANCER", "HLT_0543", "HLGT_0536", "HISTORICAL DIAGNOSIS", "NEOPLASMS BENIGN, MALIGNANT AND UNSPECIFIED (INCL CYSTS AND POLYPS)", "", 1.0, "SCREENING 1", -7, "2013-03-08", "1975", -8], [609, "CDISCPILOT01", "MH", "01-703-1210", 2, "E03", "VERBATIM_1513", "EDEMATOUS FEET", "OEDEMA PERIPHERAL", "HLT_0661", "HLGT_0137", "SIGNIFICANT PRE-EXISTING CONDITION", "GENERAL DISORDERS AND ADMINISTRATION SITE CONDITIONS", "MODERATE", 1.0, "SCREENING 1", -7, "2013-03-08", "", -8], [610, "CDISCPILOT01", "MH", "01-703-1210", 1, "E02", "VERBATIM_1201", "OSTEOPOROSIS", "OSTEOPOROSIS", "HLT_0381", "HLGT_0634", "SIGNIFICANT PRE-EXISTING CONDITION", "MUSCULOSKELETAL AND CONNECTIVE TISSUE DISORDERS", "MILD", 1.0, "SCREENING 1", -7, "2013-03-08", "", -8], [611, "CDISCPILOT01", "MH", "01-703-1210", 3, "", "VERBATIM_0227", "TONGUE OPERATION", "TONGUE OPERATION", "HLT_0182", "HLGT_0383", "HISTORICAL DIAGNOSIS", "SURGICAL AND MEDICAL PROCEDURES", "", 1.0, "SCREENING 1", -7, "2013-03-08", "1975", -8], [612, "CDISCPILOT01", "MH", "01-703-1258", 8, "", "ALZHEIMER'S DISEASE", "", "", "", "", "PRIMARY DIAGNOSIS", "", "", 1.0, "SCREENING 1", -7, "2012-07-10", "2006-02-17", -10], [613, "CDISCPILOT01", "MH", "01-703-1258", 7, "", "VERBATIM_1775", "APPENDECTOMY", "APPENDICECTOMY", "HLT_0707", "HLGT_0363", "HISTORICAL DIAGNOSIS", "SURGICAL AND MEDICAL PROCEDURES", "", 1.0, "SCREENING 1", -7, "2012-07-10", "1952", -10], [614, "CDISCPILOT01", "MH", "01-703-1258", 5, "E01", "VERBATIM_1309", "ARTHRITIS", "ARTHRITIS", "HLT_0019", "HLGT_0587", "SIGNIFICANT PRE-EXISTING CONDITION", "MUSCULOSKELETAL AND CONNECTIVE TISSUE DISORDERS", "MILD", 1.0, "SCREENING 1", -7, "2012-07-10", "", -10], [615, "CDISCPILOT01", "MH", "01-703-1258", 9, "", "VERBATIM_0764", "BLADDER PROLAPSE", "BLADDER PROLAPSE", "HLT_0502", "HLGT_0048", "HISTORICAL DIAGNOSIS", "RENAL AND URINARY DISORDERS", "", 1.0, "SCREENING 1", -7, "2012-07-10", "2010-04", -10], [616, "CDISCPILOT01", "MH", "01-703-1258", 4, "E05", "VERBATIM_0875", "DIABETES", "DIABETES MELLITUS", "HLT_0447", "HLGT_0572", "SIGNIFICANT PRE-EXISTING CONDITION", "METABOLISM AND NUTRITION DISORDERS", "MILD", 1.0, "SCREENING 1", -7, "2012-07-10", "", -10], [617, "CDISCPILOT01", "MH", "01-703-1258", 6, "E06", "VERBATIM_1533", "DIZZINESS", "DIZZINESS", "HLT_0619", "HLGT_0751", "SIGNIFICANT PRE-EXISTING CONDITION", "NERVOUS SYSTEM DISORDERS", "MILD", 1.0, "SCREENING 1", -7, "2012-07-10", "", -10], [618, "CDISCPILOT01", "MH", "01-703-1258", 2, "E02", "VERBATIM_0308", "GLAUCOMA", "GLAUCOMA", "HLT_0556", "HLGT_0734", "SIGNIFICANT PRE-EXISTING CONDITION", "EYE DISORDERS", "MODERATE", 1.0, "SCREENING 1", -7, "2012-07-10", "", -10], [619, "CDISCPILOT01", "MH", "01-703-1258", 1, "E04", "VERBATIM_0164", "HYPERCHOLESTEROLEMIA", "HYPERCHOLESTEROLAEMIA", "HLT_0025", "HLGT_0703", "SIGNIFICANT PRE-EXISTING CONDITION", "METABOLISM AND NUTRITION DISORDERS", "MILD", 1.0, "SCREENING 1", -7, "2012-07-10", "", -10], [620, "CDISCPILOT01", "MH", "01-703-1258", 3, "E03", "VERBATIM_0342", "HYPERTENSION", "HYPERTENSION", "HLT_0228", "HLGT_0476", "SIGNIFICANT PRE-EXISTING CONDITION", "VASCULAR DISORDERS", "MILD", 1.0, "SCREENING 1", -7, "2012-07-10", "", -10], [621, "CDISCPILOT01", "MH", "01-703-1258", 10, "", "VERBATIM_0936", "HYSTERECTOMY", "HYSTERECTOMY", "HLT_0675", "HLGT_0657", "HISTORICAL DIAGNOSIS", "SURGICAL AND MEDICAL PROCEDURES", "", 1.0, "SCREENING 1", -7, "2012-07-10", "2010-04", -10], [622, "CDISCPILOT01", "MH", "01-703-1258", 11, "", "VERBATIM_0657", "ESOPHAGEAL STENOSIS", "OESOPHAGEAL STENOSIS", "HLT_0741", "HLGT_0704", "HISTORICAL DIAGNOSIS", "GASTROINTESTINAL DISORDERS", "", 1.0, "SCREENING 1", -7, "2012-07-10", "2011-05", -10], [623, "CDISCPILOT01", "MH", "01-703-1279", 2, "", "ALZHEIMER'S DISEASE", "", "", "", "", "PRIMARY DIAGNOSIS", "", "", 1.0, "SCREENING 1", -7, "2013-04-27", "2010-07-29", -16], [624, "CDISCPILOT01", "MH", "01-703-1279", 1, "E01", "VERBATIM_1309", "ARTHRITIS", "ARTHRITIS", "HLT_0019", "HLGT_0587", "SIGNIFICANT PRE-EXISTING CONDITION", "MUSCULOSKELETAL AND CONNECTIVE TISSUE DISORDERS", "MILD", 1.0, "SCREENING 1", -7, "2013-04-27", "", -16], [625, "CDISCPILOT01", "MH", "01-703-1295", 7, "", "ALZHEIMER'S DISEASE", "", "", "", "", "PRIMARY DIAGNOSIS", "", "", 1.0, "SCREENING 1", -7, "2013-10-24", "2012-04-05", -28], [626, "CDISCPILOT01", "MH", "01-703-1295", 1, "E02", "VERBATIM_0109", "PAIN IN HIP", "ARTHRALGIA", "HLT_0375", "HLGT_0610", "SIGNIFICANT PRE-EXISTING CONDITION", "MUSCULOSKELETAL AND CONNECTIVE TISSUE DISORDERS", "MILD", 1.0, "SCREENING 1", -7, "2013-10-24", "", -28], [627, "CDISCPILOT01", "MH", "01-703-1295", 3, "E03", "VERBATIM_0443", "CONSTIPATION", "CONSTIPATION", "HLT_0402", "HLGT_0635", "SIGNIFICANT PRE-EXISTING CONDITION", "GASTROINTESTINAL DISORDERS", "MILD", 1.0, "SCREENING 1", -7, "2013-10-24", "", -28], [628, "CDISCPILOT01", "MH", "01-703-1295", 2, "E04", "VERBATIM_0391", "HEARING LOSS", "DEAFNESS", "HLT_0234", "HLGT_0025", "SIGNIFICANT PRE-EXISTING CONDITION", "EAR AND LABYRINTH DISORDERS", "MILD", 1.0, "SCREENING 1", -7, "2013-10-24", "", -28], [629, "CDISCPILOT01", "MH", "01-703-1295", 6, "", "VERBATIM_1074", "FRACTURE TREATMENT", "FRACTURE TREATMENT", "HLT_0650", "HLGT_0620", "HISTORICAL DIAGNOSIS", "SURGICAL AND MEDICAL PROCEDURES", "", 1.0, "SCREENING 1", -7, "2013-10-24", "2012-04", -28], [630, "CDISCPILOT01", "MH", "01-703-1295", 5, "E01", "VERBATIM_1512", "HYPOTHYROIDISM", "HYPOTHYROIDISM", "HLT_0454", "HLGT_0558", "SIGNIFICANT PRE-EXISTING CONDITION", "ENDOCRINE DISORDERS", "MILD", 1.0, "SCREENING 1", -7, "2013-10-24", "", -28], [631, "CDISCPILOT01", "MH", "01-703-1295", 4, "E05", "VERBATIM_1424", "PAGET'S DISEASE", "OSTEITIS DEFORMANS", "HLT_0459", "HLGT_0692", "SIGNIFICANT PRE-EXISTING CONDITION", "MUSCULOSKELETAL AND CONNECTIVE TISSUE DISORDERS", "MODERATE", 1.0, "SCREENING 1", -7, "2013-10-24", "", -28], [632, "CDISCPILOT01", "MH", "01-703-1299", 8, "", "ALZHEIMER'S DISEASE", "", "", "", "", "PRIMARY DIAGNOSIS", "", "", 1.0, "SCREENING 1", -7, "2012-09-07", "2011-09-16", -5], [633, "CDISCPILOT01", "MH", "01-703-1299", 3, "E03", "VERBATIM_1309", "ARTHRITIS", "ARTHRITIS", "HLT_0019", "HLGT_0587", "SIGNIFICANT PRE-EXISTING CONDITION", "MUSCULOSKELETAL AND CONNECTIVE TISSUE DISORDERS", "MILD", 1.0, "SCREENING 1", -7, "2012-09-07", "", -5], [634, "CDISCPILOT01", "MH", "01-703-1299", 4, "", "VERBATIM_1390", "BREAST CANCER", "BREAST CANCER", "HLT_0101", "HLGT_0442", "HISTORICAL DIAGNOSIS", "NEOPLASMS BENIGN, MALIGNANT AND UNSPECIFIED (INCL CYSTS AND POLYPS)", "", 1.0, "SCREENING 1", -7, "2012-09-07", "2004", -5], [635, "CDISCPILOT01", "MH", "01-703-1299", 6, "", "VERBATIM_0393", "COLECTOMY", "COLECTOMY", "HLT_0054", "HLGT_0052", "HISTORICAL DIAGNOSIS", "SURGICAL AND MEDICAL PROCEDURES", "", 1.0, "SCREENING 1", -7, "2012-09-07", "2007", -5], [636, "CDISCPILOT01", "MH", "01-703-1299", 1, "E01", "VERBATIM_0308", "GLAUCOMA", "GLAUCOMA", "HLT_0556", "HLGT_0734", "SIGNIFICANT PRE-EXISTING CONDITION", "EYE DISORDERS", "MILD", 1.0, "SCREENING 1", -7, "2012-09-07", "", -5], [637, "CDISCPILOT01", "MH", "01-703-1299", 2, "E04", "VERBATIM_0584", "HEARING DECREASED", "HYPOACUSIS", "HLT_0174", "HLGT_0589", "SIGNIFICANT PRE-EXISTING CONDITION", "EAR AND LABYRINTH DISORDERS", "MILD", 1.0, "SCREENING 1", -7, "2012-09-07", "", -5], [638, "CDISCPILOT01", "MH", "01-703-1299", 7, "", "VERBATIM_1602", "INTESTINAL OBSTRUCTION", "INTESTINAL OBSTRUCTION", "HLT_0468", "HLGT_0515", "HISTORICAL DIAGNOSIS", "GASTROINTESTINAL DISORDERS", "", 1.0, "SCREENING 1", -7, "2012-09-07", "2007", -5], [639, "CDISCPILOT01", "MH", "01-703-1299", 5, "", "VERBATIM_1415", "MASTECTOMY", "MASTECTOMY", "HLT_0729", "HLGT_0669", "HISTORICAL DIAGNOSIS", "SURGICAL AND MEDICAL PROCEDURES", "", 1.0, "SCREENING 1", -7, "2012-09-07", "2004", -5], [640, "CDISCPILOT01", "MH", "01-703-1335", 3, "", "ALZHEIMER'S DISEASE", "", "", "", "", "PRIMARY DIAGNOSIS", "", "", 1.0, "SCREENING 1", -7, "2014-02-28", "2008-01-30", -17], [641, "CDISCPILOT01", "MH", "01-703-1335", 1, "E02", "VERBATIM_1309", "ARTHRITIS", "ARTHRITIS", "HLT_0019", "HLGT_0587", "SIGNIFICANT PRE-EXISTING CONDITION", "MUSCULOSKELETAL AND CONNECTIVE TISSUE DISORDERS", "MILD", 1.0, "SCREENING 1", -7, "2014-02-28", "", -17], [642, "CDISCPILOT01", "MH", "01-703-1335", 2, "", "VERBATIM_0064", "PEPTIC ULCER", "PEPTIC ULCER", "HLT_0113", "HLGT_0482", "HISTORICAL DIAGNOSIS", "GASTROINTESTINAL DISORDERS", "", 1.0, "SCREENING 1", -7, "2014-02-28", "2007", -17], [643, "CDISCPILOT01", "MH", "01-703-1379", 8, "", "ALZHEIMER'S DISEASE", "", "", "", "", "PRIMARY DIAGNOSIS", "", "", 1.0, "SCREENING 1", -7, "2013-09-12", "2009-09-21", -10], [644, "CDISCPILOT01", "MH", "01-703-1379", 3, "E07", "VERBATIM_0568", "ATHEROSCLEROSIS", "ATHEROSCLEROSIS", "HLT_0129", "HLGT_0455", "SIGNIFICANT PRE-EXISTING CONDITION", "VASCULAR DISORDERS", "MILD", 1.0, "SCREENING 1", -7, "2013-09-12", "", -10], [645, "CDISCPILOT01", "MH", "01-703-1379", 4, "E04", "VERBATIM_0738", "NON-INSULIN-DEPENDENT DIABETES MELLITUS", "DIABETES MELLITUS NON-INSULIN-DEPENDENT", "HLT_0706", "HLGT_0092", "SIGNIFICANT PRE-EXISTING CONDITION", "METABOLISM AND NUTRITION DISORDERS", "MILD", 1.0, "SCREENING 1", -7, "2013-09-12", "", -10], [646, "CDISCPILOT01", "MH", "01-703-1379", 5, "E06", "VERBATIM_0980", "GOUT", "GOUT", "HLT_0396", "HLGT_0479", "SIGNIFICANT PRE-EXISTING CONDITION", "METABOLISM AND NUTRITION DISORDERS", "MILD", 1.0, "SCREENING 1", -7, "2013-09-12", "", -10], [647, "CDISCPILOT01", "MH", "01-703-1379", 2, "E03", "VERBATIM_0342", "HYPERTENSION", "HYPERTENSION", "HLT_0228", "HLGT_0476", "SIGNIFICANT PRE-EXISTING CONDITION", "VASCULAR DISORDERS", "MILD", 1.0, "SCREENING 1", -7, "2013-09-12", "", -10], [648, "CDISCPILOT01", "MH", "01-703-1379", 1, "E02", "VERBATIM_0277", "MITRAL VALVE DISEASE", "MITRAL VALVE DISEASE", "HLT_0755", "HLGT_0053", "SIGNIFICANT PRE-EXISTING CONDITION", "CARDIAC DISORDERS", "MILD", 1.0, "SCREENING 1", -7, "2013-09-12", "", -10], [649, "CDISCPILOT01", "MH", "01-703-1379", 6, "E05", "VERBATIM_1734", "DEGENERATIVE JOINT DISEASE", "OSTEOARTHRITIS", "HLT_0247", "HLGT_0462", "SIGNIFICANT PRE-EXISTING CONDITION", "MUSCULOSKELETAL AND CONNECTIVE TISSUE DISORDERS", "MILD", 1.0, "SCREENING 1", -7, "2013-09-12", "", -10], [650, "CDISCPILOT01", "MH", "01-703-1379", 9, "", "VERBATIM_0624", "STASIS ULCER", "SKIN ULCER", "HLT_0005", "HLGT_0017", "HISTORICAL DIAGNOSIS", "SKIN AND SUBCUTANEOUS TISSUE DISORDERS", "", 1.0, "SCREENING 1", -7, "2013-09-12", "2011", -10], [651, "CDISCPILOT01", "MH", "01-703-1379", 7, "", "VERBATIM_1615", "UTERINE BENIGN NEOPLASM REMOVAL", "UTERINE TUMOUR EXCISION", "HLT_0081", "HLGT_0357", "HISTORICAL DIAGNOSIS", "SURGICAL AND MEDICAL PROCEDURES", "", 1.0, "SCREENING 1", -7, "2013-09-12", "1971", -10], [652, "CDISCPILOT01", "MH", "01-703-1403", 4, "", "ALZHEIMER'S DISEASE", "", "", "", "", "PRIMARY DIAGNOSIS", "", "", 1.0, "SCREENING 1", -7, "2012-12-05", "2010-12-07", -7], [653, "CDISCPILOT01", "MH", "01-703-1403", 2, "E05", "VERBATIM_1333", "RIGHT CATARACT", "CATARACT", "HLT_0090", "HLGT_0498", "SIGNIFICANT PRE-EXISTING CONDITION", "EYE DISORDERS", "MILD", 1.0, "SCREENING 1", -7, "2012-12-05", "", -7], [654, "CDISCPILOT01", "MH", "01-703-1403", 1, "E04", "VERBATIM_0786", "HEARING DECREASED", "HYPOACUSIS", "HLT_0174", "HLGT_0589", "SIGNIFICANT PRE-EXISTING CONDITION", "EAR AND LABYRINTH DISORDERS", "MILD", 1.0, "SCREENING 1", -7, "2012-12-05", "", -7], [655, "CDISCPILOT01", "MH", "01-703-1403", 3, "E06", "VERBATIM_1610", "LACERATION OF FINGER", "SKIN LACERATION", "HLT_0075", "HLGT_0118", "SIGNIFICANT PRE-EXISTING CONDITION", "INJURY, POISONING AND PROCEDURAL COMPLICATIONS", "MODERATE", 1.0, "SCREENING 1", -7, "2012-12-05", "", -7], [656, "CDISCPILOT01", "MH", "01-703-1439", 3, "", "ALZHEIMER'S DISEASE", "", "", "", "", "PRIMARY DIAGNOSIS", "", "", 1.0, "SCREENING 1", -7, "2014-03-04", "2010-07-29", -8], [657, "CDISCPILOT01", "MH", "01-703-1439", 2, "", "VERBATIM_0503", "HIP REPLACEMENT", "HIP ARTHROPLASTY", "HLT_0709", "HLGT_0449", "HISTORICAL DIAGNOSIS", "SURGICAL AND MEDICAL PROCEDURES", "", 1.0, "SCREENING 1", -7, "2014-03-04", "2010", -8], [658, "CDISCPILOT01", "MH", "01-703-1439", 4, "", "VERBATIM_0720", "KNEE TOTAL REPLACEMENT", "KNEE ARTHROPLASTY", "HLT_0710", "HLGT_0078", "HISTORICAL DIAGNOSIS", "SURGICAL AND MEDICAL PROCEDURES", "", 1.0, "SCREENING 1", -7, "2014-03-04", "2011", -8], [659, "CDISCPILOT01", "MH", "01-703-1439", 1, "", "VERBATIM_1009", "MENOPAUSE", "MENOPAUSE", "HLT_0723", "HLGT_0632", "HISTORICAL DIAGNOSIS", "SOCIAL CIRCUMSTANCES", "", 1.0, "SCREENING 1", -7, "2014-03-04", "1992", -8], [660, "CDISCPILOT01", "MH", "01-704-1008", 5, "", "ALZHEIMER'S DISEASE", "", "", "", "", "PRIMARY DIAGNOSIS", "", "", 1.0, "SCREENING 1", -7, "2013-01-06", "2011-10-17", -7], [661, "CDISCPILOT01", "MH", "01-704-1008", 4, "", "VERBATIM_1775", "APPENDECTOMY", "APPENDICECTOMY", "HLT_0707", "HLGT_0363", "HISTORICAL DIAGNOSIS", "SURGICAL AND MEDICAL PROCEDURES", "", 1.0, "SCREENING 1", -7, "2013-01-06", "1956", -7], [662, "CDISCPILOT01", "MH", "01-704-1008", 6, "", "VERBATIM_1534", "BIOPSY BREAST NORMAL", "BIOPSY BREAST NORMAL", "HLT_0575", "HLGT_0269", "HISTORICAL DIAGNOSIS", "INVESTIGATIONS", "", 1.0, "SCREENING 1", -7, "2013-01-06", "2012-01", -7], [663, "CDISCPILOT01", "MH", "01-704-1008", 7, "", "VERBATIM_0371", "RIGHT CATARACT EXTRACTION", "CATARACT OPERATION", "HLT_0432", "HLGT_0058", "HISTORICAL DIAGNOSIS", "SURGICAL AND MEDICAL PROCEDURES", "", 1.0, "SCREENING 1", -7, "2013-01-06", "2012-07-21", -7], [664, "CDISCPILOT01", "MH", "01-704-1008", 2, "E02", "VERBATIM_0391", "HEARING LOSS", "DEAFNESS", "HLT_0234", "HLGT_0025", "SIGNIFICANT PRE-EXISTING CONDITION", "EAR AND LABYRINTH DISORDERS", "MILD", 1.0, "SCREENING 1", -7, "2013-01-06", "", -7], [665, "CDISCPILOT01", "MH", "01-704-1008", 1, "E04", "VERBATIM_0301", "HEADACHE", "HEADACHE", "HLT_0064", "HLGT_0344", "SIGNIFICANT PRE-EXISTING CONDITION", "NERVOUS SYSTEM DISORDERS", "MILD", 1.0, "SCREENING 1", -7, "2013-01-06", "", -7], [666, "CDISCPILOT01", "MH", "01-704-1008", 3, "E01", "VERBATIM_0692", "HYPOTHYROIDISM", "HYPOTHYROIDISM", "HLT_0454", "HLGT_0558", "SIGNIFICANT PRE-EXISTING CONDITION", "ENDOCRINE DISORDERS", "MILD", 1.0, "SCREENING 1", -7, "2013-01-06", "", -7], [667, "CDISCPILOT01", "MH", "01-704-1009", 6, "", "ALZHEIMER'S DISEASE", "", "", "", "", "PRIMARY DIAGNOSIS", "", "", 1.0, "SCREENING 1", -7, "2013-08-20", "2009-02-03", -7], [668, "CDISCPILOT01", "MH", "01-704-1009", 3, "E02", "VERBATIM_1309", "ARTHRITIS", "ARTHRITIS", "HLT_0019", "HLGT_0587", "SIGNIFICANT PRE-EXISTING CONDITION", "MUSCULOSKELETAL AND CONNECTIVE TISSUE DISORDERS", "MILD", 1.0, "SCREENING 1", -7, "2013-08-20", "", -7], [669, "CDISCPILOT01", "MH", "01-704-1009", 5, "E01", "VERBATIM_1646", "ENLARGED PROSTATE", "BENIGN PROSTATIC HYPERPLASIA", "HLT_0215", "HLGT_0568", "SIGNIFICANT PRE-EXISTING CONDITION", "REPRODUCTIVE SYSTEM AND BREAST DISORDERS", "MILD", 1.0, "SCREENING 1", -7, "2013-08-20", "", -7], [670, "CDISCPILOT01", "MH", "01-704-1009", 1, "E06", "VERBATIM_0292", "INTERMITTENT HEADACHE", "HEADACHE", "HLT_0064", "HLGT_0344", "SIGNIFICANT PRE-EXISTING CONDITION", "NERVOUS SYSTEM DISORDERS", "MILD", 1.0, "SCREENING 1", -7, "2013-08-20", "", -7], [671, "CDISCPILOT01", "MH", "01-704-1009", 4, "E11", "VERBATIM_1635", "MYOCARDIAL INFARCTION", "MYOCARDIAL INFARCTION", "HLT_0649", "HLGT_0688", "SIGNIFICANT PRE-EXISTING CONDITION", "CARDIAC DISORDERS", "MILD", 1.0, "SCREENING 1", -7, "2013-08-20", "", -7], [672, "CDISCPILOT01", "MH", "01-704-1009", 2, "E05", "VERBATIM_1029", "SEASONAL ALLERGY", "SEASONAL ALLERGY", "HLT_0714", "HLGT_0782", "SIGNIFICANT PRE-EXISTING CONDITION", "IMMUNE SYSTEM DISORDERS", "MILD", 1.0, "SCREENING 1", -7, "2013-08-20", "", -7], [673, "CDISCPILOT01", "MH", "01-704-1010", 9, "", "ALZHEIMER'S DISEASE", "", "", "", "", "PRIMARY DIAGNOSIS", "", "", 1.0, "SCREENING 1", -7, "2014-02-08", "2006-01-02", -13], [674, "CDISCPILOT01", "MH", "01-704-1010", 1, "E02", "VERBATIM_0342", "HYPERTENSION", "HYPERTENSION", "HLT_0228", "HLGT_0476", "SIGNIFICANT PRE-EXISTING CONDITION", "VASCULAR DISORDERS", "MILD", 1.0, "SCREENING 1", -7, "2014-02-08", "", -13], [675, "CDISCPILOT01", "MH", "01-704-1010", 2, "", "VERBATIM_0472", "INGUINAL HERNIA", "INGUINAL HERNIA", "HLT_0388", "HLGT_0368", "HISTORICAL DIAGNOSIS", "GASTROINTESTINAL DISORDERS", "", 1.0, "SCREENING 1", -7, "2014-02-08", "1957", -13], [676, "CDISCPILOT01", "MH", "01-704-1010", 3, "", "VERBATIM_0472", "INGUINAL HERNIA", "INGUINAL HERNIA", "HLT_0388", "HLGT_0368", "HISTORICAL DIAGNOSIS", "GASTROINTESTINAL DISORDERS", "", 1.0, "SCREENING 1", -7, "2014-02-08", "1959", -13], [677, "CDISCPILOT01", "MH", "01-704-1010", 4, "", "VERBATIM_0472", "INGUINAL HERNIA", "INGUINAL HERNIA", "HLT_0388", "HLGT_0368", "HISTORICAL DIAGNOSIS", "GASTROINTESTINAL DISORDERS", "", 1.0, "SCREENING 1", -7, "2014-02-08", "1967", -13], [678, "CDISCPILOT01", "MH", "01-704-1010", 5, "", "VERBATIM_0472", "INGUINAL HERNIA", "INGUINAL HERNIA", "HLT_0388", "HLGT_0368", "HISTORICAL DIAGNOSIS", "GASTROINTESTINAL DISORDERS", "", 1.0, "SCREENING 1", -7, "2014-02-08", "1972", -13], [679, "CDISCPILOT01", "MH", "01-704-1010", 6, "", "VERBATIM_0472", "INGUINAL HERNIA", "INGUINAL HERNIA", "HLT_0388", "HLGT_0368", "HISTORICAL DIAGNOSIS", "GASTROINTESTINAL DISORDERS", "", 1.0, "SCREENING 1", -7, "2014-02-08", "1978", -13], [680, "CDISCPILOT01", "MH", "01-704-1010", 7, "", "VERBATIM_0472", "INGUINAL HERNIA", "INGUINAL HERNIA", "HLT_0388", "HLGT_0368", "HISTORICAL DIAGNOSIS", "GASTROINTESTINAL DISORDERS", "", 1.0, "SCREENING 1", -7, "2014-02-08", "1986", -13], [681, "CDISCPILOT01", "MH", "01-704-1010", 8, "", "VERBATIM_0257", "FRACTURE OF PATELLA", "PATELLA FRACTURE", "HLT_0044", "HLGT_0712", "HISTORICAL DIAGNOSIS", "INJURY, POISONING AND PROCEDURAL COMPLICATIONS", "", 1.0, "SCREENING 1", -7, "2014-02-08", "1994-05", -13], [682, "CDISCPILOT01", "MH", "01-704-1017", 9, "", "ALZHEIMER'S DISEASE", "", "", "", "", "PRIMARY DIAGNOSIS", "", "", 1.0, "SCREENING 1", -7, "2013-09-20", "2011-03-27", -16], [683, "CDISCPILOT01", "MH", "01-704-1017", 1, "E08", "VERBATIM_0572", "CARDIAC DISORDER", "CARDIAC DISORDER", "HLT_0507", "HLGT_0126", "SIGNIFICANT PRE-EXISTING CONDITION", "CARDIAC DISORDERS", "MILD", 1.0, "SCREENING 1", -7, "2013-09-20", "", -16], [684, "CDISCPILOT01", "MH", "01-704-1017", 5, "E09", "VERBATIM_1153", "ST SEGMENT DEPRESSED", "ELECTROCARDIOGRAM ST SEGMENT DEPRESSION", "HLT_0610", "HLGT_0220", "SIGNIFICANT PRE-EXISTING CONDITION", "INVESTIGATIONS", "MILD", 1.0, "SCREENING 1", -7, "2013-09-20", "", -16], [685, "CDISCPILOT01", "MH", "01-704-1017", 3, "E10", "VERBATIM_0806", "ST SEGMENT ELEVATED", "ELECTROCARDIOGRAM ST SEGMENT ELEVATION", "HLT_0272", "HLGT_0116", "SIGNIFICANT PRE-EXISTING CONDITION", "INVESTIGATIONS", "MILD", 1.0, "SCREENING 1", -7, "2013-09-20", "", -16], [686, "CDISCPILOT01", "MH", "01-704-1017", 6, "E03", "VERBATIM_1608", "SKIPPED BEATS", "EXTRASYSTOLES", "HLT_0135", "HLGT_0044", "SIGNIFICANT PRE-EXISTING CONDITION", "CARDIAC DISORDERS", "MILD", 1.0, "SCREENING 1", -7, "2013-09-20", "", -16], [687, "CDISCPILOT01", "MH", "01-704-1017", 2, "E06", "VERBATIM_0608", "LIBIDO INCREASED", "LIBIDO INCREASED", "HLT_0367", "HLGT_0494", "SIGNIFICANT PRE-EXISTING CONDITION", "PSYCHIATRIC DISORDERS", "MILD", 1.0, "SCREENING 1", -7, "2013-09-20", "", -16], [688, "CDISCPILOT01", "MH", "01-704-1017", 7, "", "VERBATIM_0954", "HEART ATTACK", "MYOCARDIAL INFARCTION", "HLT_0649", "HLGT_0688", "HISTORICAL DIAGNOSIS", "CARDIAC DISORDERS", "", 1.0, "SCREENING 1", -7, "2013-09-20", "2000-05-15", -16], [689, "CDISCPILOT01", "MH", "01-704-1017", 4, "E07", "VERBATIM_0811", "MYOCARDIAL INFARCTION", "MYOCARDIAL INFARCTION", "HLT_0649", "HLGT_0688", "SIGNIFICANT PRE-EXISTING CONDITION", "CARDIAC DISORDERS", "MILD", 1.0, "SCREENING 1", -7, "2013-09-20", "", -16], [690, "CDISCPILOT01", "MH", "01-704-1017", 8, "", "VERBATIM_1486", "TRIPLE VESSEL BYPASS GRAFT", "TRIPLE VESSEL BYPASS GRAFT", "HLT_0414", "HLGT_0399", "HISTORICAL DIAGNOSIS", "SURGICAL AND MEDICAL PROCEDURES", "", 1.0, "SCREENING 1", -7, "2013-09-20", "2006-12-16", -16], [691, "CDISCPILOT01", "MH", "01-704-1025", 4, "", "ALZHEIMER'S DISEASE", "", "", "", "", "PRIMARY DIAGNOSIS", "", "", 1.0, "SCREENING 1", -7, "2013-09-18", "2012-03-03", -9], [692, "CDISCPILOT01", "MH", "01-704-1025", 1, "E04", "VERBATIM_1309", "ARTHRITIS", "ARTHRITIS", "HLT_0019", "HLGT_0587", "SIGNIFICANT PRE-EXISTING CONDITION", "MUSCULOSKELETAL AND CONNECTIVE TISSUE DISORDERS", "MILD", 1.0, "SCREENING 1", -7, "2013-09-18", "", -9], [693, "CDISCPILOT01", "MH", "01-704-1025", 2, "E03", "VERBATIM_1472", "PAROXYSMAL ATRIAL TACHYCARDIA", "ATRIAL TACHYCARDIA", "HLT_0337", "HLGT_0474", "SIGNIFICANT PRE-EXISTING CONDITION", "CARDIAC DISORDERS", "MILD", 1.0, "SCREENING 1", -7, "2013-09-18", "", -9], [694, "CDISCPILOT01", "MH", "01-704-1025", 5, "", "VERBATIM_1687", "CATARACT OPERATION", "CATARACT OPERATION", "HLT_0432", "HLGT_0058", "HISTORICAL DIAGNOSIS", "SURGICAL AND MEDICAL PROCEDURES", "", 1.0, "SCREENING 1", -7, "2013-09-18", "2012-05", -9], [695, "CDISCPILOT01", "MH", "01-704-1025", 3, "", "VERBATIM_0474", "HIP SURGERY", "HIP SURGERY", "HLT_0531", "HLGT_0626", "HISTORICAL DIAGNOSIS", "SURGICAL AND MEDICAL PROCEDURES", "", 1.0, "SCREENING 1", -7, "2013-09-18", "1982", -9], [696, "CDISCPILOT01", "MH", "01-704-1065", 8, "", "ALZHEIMER'S DISEASE", "", "", "", "", "PRIMARY DIAGNOSIS", "", "", 1.0, "SCREENING 1", -7, "2013-10-17", "2010-03-23", -7], [697, "CDISCPILOT01", "MH", "01-704-1065", 7, "E04", "VERBATIM_1309", "ARTHRITIS", "ARTHRITIS", "HLT_0019", "HLGT_0587", "SIGNIFICANT PRE-EXISTING CONDITION", "MUSCULOSKELETAL AND CONNECTIVE TISSUE DISORDERS", "MILD", 1.0, "SCREENING 1", -7, "2013-10-17", "", -7], [698, "CDISCPILOT01", "MH", "01-704-1065", 5, "E02", "VERBATIM_1044", "HIGH CHOLESTEROL", "BLOOD CHOLESTEROL INCREASED", "HLT_0210", "HLGT_0430", "SIGNIFICANT PRE-EXISTING CONDITION", "INVESTIGATIONS", "MILD", 1.0, "SCREENING 1", -7, "2013-10-17", "", -7], [699, "CDISCPILOT01", "MH", "01-704-1065", 6, "E08", "VERBATIM_1189", "SYSTOLIC MURMUR", "CARDIAC MURMUR", "HLT_0085", "HLGT_0133", "SIGNIFICANT PRE-EXISTING CONDITION", "INVESTIGATIONS", "MILD", 1.0, "SCREENING 1", -7, "2013-10-17", "", -7], [700, "CDISCPILOT01", "MH", "01-704-1065", 2, "E01", "VERBATIM_0342", "HYPERTENSION", "HYPERTENSION", "HLT_0228", "HLGT_0476", "SIGNIFICANT PRE-EXISTING CONDITION", "VASCULAR DISORDERS", "MILD", 1.0, "SCREENING 1", -7, "2013-10-17", "", -7], [701, "CDISCPILOT01", "MH", "01-704-1065", 3, "E09", "VERBATIM_0786", "HEARING DECREASED", "HYPOACUSIS", "HLT_0174", "HLGT_0589", "SIGNIFICANT PRE-EXISTING CONDITION", "EAR AND LABYRINTH DISORDERS", "MILD", 1.0, "SCREENING 1", -7, "2013-10-17", "", -7], [702, "CDISCPILOT01", "MH", "01-704-1065", 4, "E03", "VERBATIM_1029", "SEASONAL ALLERGY", "SEASONAL ALLERGY", "HLT_0714", "HLGT_0782", "SIGNIFICANT PRE-EXISTING CONDITION", "IMMUNE SYSTEM DISORDERS", "MILD", 1.0, "SCREENING 1", -7, "2013-10-17", "", -7], [703, "CDISCPILOT01", "MH", "01-704-1065", 1, "E05", "VERBATIM_0256", "SPINAL OSTEOARTHRITIS", "SPINAL OSTEOARTHRITIS", "HLT_0070", "HLGT_0581", "SIGNIFICANT PRE-EXISTING CONDITION", "MUSCULOSKELETAL AND CONNECTIVE TISSUE DISORDERS", "MILD", 1.0, "SCREENING 1", -7, "2013-10-17", "", -7], [704, "CDISCPILOT01", "MH", "01-704-1074", 10, "", "ALZHEIMER'S DISEASE", "", "", "", "", "PRIMARY DIAGNOSIS", "", "", 1.0, "SCREENING 1", -7, "2014-01-19", "2009-01-30", -3], [705, "CDISCPILOT01", "MH", "01-704-1074", 4, "E06", "VERBATIM_0890", "DIZZINESS", "DIZZINESS", "HLT_0619", "HLGT_0751", "SIGNIFICANT PRE-EXISTING CONDITION", "NERVOUS SYSTEM DISORDERS", "MILD", 1.0, "SCREENING 1", -7, "2014-01-19", "", -3], [706, "CDISCPILOT01", "MH", "01-704-1074", 1, "E04", "VERBATIM_0308", "GLAUCOMA", "GLAUCOMA", "HLT_0556", "HLGT_0734", "SIGNIFICANT PRE-EXISTING CONDITION", "EYE DISORDERS", "MILD", 1.0, "SCREENING 1", -7, "2014-01-19", "", -3], [707, "CDISCPILOT01", "MH", "01-704-1074", 2, "E01", "VERBATIM_0342", "HYPERTENSION", "HYPERTENSION", "HLT_0228", "HLGT_0476", "SIGNIFICANT PRE-EXISTING CONDITION", "VASCULAR DISORDERS", "MILD", 1.0, "SCREENING 1", -7, "2014-01-19", "", -3], [708, "CDISCPILOT01", "MH", "01-704-1074", 3, "E03", "VERBATIM_0692", "HYPOTHYROIDISM", "HYPOTHYROIDISM", "HLT_0454", "HLGT_0558", "SIGNIFICANT PRE-EXISTING CONDITION", "ENDOCRINE DISORDERS", "MILD", 1.0, "SCREENING 1", -7, "2014-01-19", "", -3], [709, "CDISCPILOT01", "MH", "01-704-1074", 8, "", "VERBATIM_0936", "HYSTERECTOMY", "HYSTERECTOMY", "HLT_0675", "HLGT_0657", "HISTORICAL DIAGNOSIS", "SURGICAL AND MEDICAL PROCEDURES", "", 1.0, "SCREENING 1", -7, "2014-01-19", "1993", -3], [710, "CDISCPILOT01", "MH", "01-704-1074", 9, "", "VERBATIM_0219", "INTERNAL FIXATION OF FRACTURE", "INTERNAL FIXATION OF FRACTURE", "HLT_0212", "HLGT_0440", "HISTORICAL DIAGNOSIS", "SURGICAL AND MEDICAL PROCEDURES", "", 1.0, "SCREENING 1", -7, "2014-01-19", "2007", -3], [711, "CDISCPILOT01", "MH", "01-704-1074", 6, "E02", "VERBATIM_1175", "LEG PAIN", "PAIN IN EXTREMITY", "HLT_0213", "HLGT_0764", "SIGNIFICANT PRE-EXISTING CONDITION", "MUSCULOSKELETAL AND CONNECTIVE TISSUE DISORDERS", "MILD", 1.0, "SCREENING 1", -7, "2014-01-19", "", -3], [712, "CDISCPILOT01", "MH", "01-704-1074", 5, "E05", "VERBATIM_1029", "SEASONAL ALLERGY", "SEASONAL ALLERGY", "HLT_0714", "HLGT_0782", "SIGNIFICANT PRE-EXISTING CONDITION", "IMMUNE SYSTEM DISORDERS", "MILD", 1.0, "SCREENING 1", -7, "2014-01-19", "", -3], [713, "CDISCPILOT01", "MH", "01-704-1074", 7, "E07", "VERBATIM_1579", "URINARY INCONTINENCE", "URINARY INCONTINENCE", "HLT_0572", "HLGT_0128", "SIGNIFICANT PRE-EXISTING CONDITION", "RENAL AND URINARY DISORDERS", "MILD", 1.0, "SCREENING 1", -7, "2014-01-19", "", -3], [714, "CDISCPILOT01", "MH", "01-704-1093", 6, "", "ALZHEIMER'S DISEASE", "", "", "", "", "PRIMARY DIAGNOSIS", "", "", 1.0, "SCREENING 1", -7, "2013-02-22", "2010-07-17", -21], [715, "CDISCPILOT01", "MH", "01-704-1093", 5, "", "VERBATIM_0834", "BLADDER TUMOR RESECTION", "BLADDER NEOPLASM SURGERY", "HLT_0183", "HLGT_0006", "HISTORICAL DIAGNOSIS", "SURGICAL AND MEDICAL PROCEDURES", "", 1.0, "SCREENING 1", -7, "2013-02-22", "2006-11", -21], [716, "CDISCPILOT01", "MH", "01-704-1093", 2, "E07", "VERBATIM_0850", "CHOKED ON FOOD", "CHOKING", "HLT_0446", "HLGT_0761", "SIGNIFICANT PRE-EXISTING CONDITION", "RESPIRATORY, THORACIC AND MEDIASTINAL DISORDERS", "MILD", 1.0, "SCREENING 1", -7, "2013-02-22", "", -21], [717, "CDISCPILOT01", "MH", "01-704-1093", 3, "E03", "VERBATIM_0875", "DIABETES", "DIABETES MELLITUS", "HLT_0447", "HLGT_0572", "SIGNIFICANT PRE-EXISTING CONDITION", "METABOLISM AND NUTRITION DISORDERS", "MILD", 1.0, "SCREENING 1", -7, "2013-02-22", "", -21], [718, "CDISCPILOT01", "MH", "01-704-1093", 1, "E01", "VERBATIM_0342", "HYPERTENSION", "HYPERTENSION", "HLT_0228", "HLGT_0476", "SIGNIFICANT PRE-EXISTING CONDITION", "VASCULAR DISORDERS", "MILD", 1.0, "SCREENING 1", -7, "2013-02-22", "", -21], [719, "CDISCPILOT01", "MH", "01-704-1093", 4, "", "VERBATIM_0472", "INGUINAL HERNIA", "INGUINAL HERNIA", "HLT_0388", "HLGT_0368", "HISTORICAL DIAGNOSIS", "GASTROINTESTINAL DISORDERS", "", 1.0, "SCREENING 1", -7, "2013-02-22", "1999-05", -21], [720, "CDISCPILOT01", "MH", "01-704-1114", 5, "", "ALZHEIMER'S DISEASE", "", "", "", "", "PRIMARY DIAGNOSIS", "", "", 1.0, "SCREENING 1", -7, "2013-01-09", "2007-03-25", -14], [721, "CDISCPILOT01", "MH", "01-704-1114", 3, "", "VERBATIM_1775", "APPENDECTOMY", "APPENDICECTOMY", "HLT_0707", "HLGT_0363", "HISTORICAL DIAGNOSIS", "SURGICAL AND MEDICAL PROCEDURES", "", 1.0, "SCREENING 1", -7, "2013-01-09", "1977-05", -14], [722, "CDISCPILOT01", "MH", "01-704-1114", 1, "E02", "VERBATIM_0410", "ARTERIOSCLEROSIS", "ARTERIOSCLEROSIS", "HLT_0662", "HLGT_0526", "SIGNIFICANT PRE-EXISTING CONDITION", "VASCULAR DISORDERS", "MILD", 1.0, "SCREENING 1", -7, "2013-01-09", "", -14], [723, "CDISCPILOT01", "MH", "01-704-1114", 2, "E01", "VERBATIM_1309", "ARTHRITIS", "ARTHRITIS", "HLT_0019", "HLGT_0587", "SIGNIFICANT PRE-EXISTING CONDITION", "MUSCULOSKELETAL AND CONNECTIVE TISSUE DISORDERS", "MILD", 1.0, "SCREENING 1", -7, "2013-01-09", "", -14], [724, "CDISCPILOT01", "MH", "01-704-1114", 4, "", "VERBATIM_1725", "CORONARY ANGIOPLASTY", "CORONARY ANGIOPLASTY", "HLT_0042", "HLGT_0042", "HISTORICAL DIAGNOSIS", "SURGICAL AND MEDICAL PROCEDURES", "", 1.0, "SCREENING 1", -7, "2013-01-09", "2004-12", -14], [725, "CDISCPILOT01", "MH", "01-704-1114", 6, "", "VERBATIM_1725", "CORONARY ANGIOPLASTY", "CORONARY ANGIOPLASTY", "HLT_0042", "HLGT_0042", "HISTORICAL DIAGNOSIS", "SURGICAL AND MEDICAL PROCEDURES", "", 1.0, "SCREENING 1", -7, "2013-01-09", "2011-09", -14], [726, "CDISCPILOT01", "MH", "01-704-1114", 7, "", "VERBATIM_1725", "CORONARY ANGIOPLASTY", "CORONARY ANGIOPLASTY", "HLT_0042", "HLGT_0042", "HISTORICAL DIAGNOSIS", "SURGICAL AND MEDICAL PROCEDURES", "", 1.0, "SCREENING 1", -7, "2013-01-09", "2011-12-28", -14], [727, "CDISCPILOT01", "MH", "01-704-1120", 3, "", "ALZHEIMER'S DISEASE", "", "", "", "", "PRIMARY DIAGNOSIS", "", "", 1.0, "SCREENING 1", -7, "2013-11-18", "2007-03-23", -14], [728, "CDISCPILOT01", "MH", "01-704-1120", 2, "", "VERBATIM_0936", "HYSTERECTOMY", "HYSTERECTOMY", "HLT_0675", "HLGT_0657", "HISTORICAL DIAGNOSIS", "SURGICAL AND MEDICAL PROCEDURES", "", 1.0, "SCREENING 1", -7, "2013-11-18", "1977", -14], [729, "CDISCPILOT01", "MH", "01-704-1120", 1, "E03", "VERBATIM_1726", "INFERIOR MYOCARDIAL INFARCTION", "MYOCARDIAL INFARCTION", "HLT_0649", "HLGT_0688", "SIGNIFICANT PRE-EXISTING CONDITION", "CARDIAC DISORDERS", "MILD", 1.0, "SCREENING 1", -7, "2013-11-18", "", -14], [730, "CDISCPILOT01", "MH", "01-704-1127", 2, "", "ALZHEIMER'S DISEASE", "", "", "", "", "PRIMARY DIAGNOSIS", "", "", 1.0, "SCREENING 1", -7, "2013-09-16", "2008-09-11", -16], [731, "CDISCPILOT01", "MH", "01-704-1127", 1, "E01", "VERBATIM_0829", "CHRONIC OBSTRUCTIVE PULMONARY DISEASE", "CHRONIC OBSTRUCTIVE PULMONARY DISEASE", "HLT_0497", "HLGT_0242", "SIGNIFICANT PRE-EXISTING CONDITION", "RESPIRATORY, THORACIC AND MEDIASTINAL DISORDERS", "MILD", 1.0, "SCREENING 1", -7, "2013-09-16", "", -16], [732, "CDISCPILOT01", "MH", "01-704-1135", 4, "", "ALZHEIMER'S DISEASE", "", "", "", "", "PRIMARY DIAGNOSIS", "", "", 1.0, "SCREENING 1", -7, "2013-10-23", "2010-10-06", -8], [733, "CDISCPILOT01", "MH", "01-704-1135", 2, "", "VERBATIM_1515", "BREAST REDUCTION", "BREAST COSMETIC SURGERY", "HLT_0080", "HLGT_0143", "HISTORICAL DIAGNOSIS", "SURGICAL AND MEDICAL PROCEDURES", "", 1.0, "SCREENING 1", -7, "2013-10-23", "1987", -8], [734, "CDISCPILOT01", "MH", "01-704-1135", 1, "", "VERBATIM_0674", "DIPHTHERIA", "DIPHTHERIA", "HLT_0601", "HLGT_0677", "HISTORICAL DIAGNOSIS", "INFECTIONS AND INFESTATIONS", "", 1.0, "SCREENING 1", -7, "2013-10-23", "1962", -8], [735, "CDISCPILOT01", "MH", "01-704-1135", 3, "", "VERBATIM_0673", "DISLOCATED SHOULDER", "JOINT DISLOCATION", "HLT_0035", "HLGT_0227", "HISTORICAL DIAGNOSIS", "INJURY, POISONING AND PROCEDURAL COMPLICATIONS", "", 1.0, "SCREENING 1", -7, "2013-10-23", "2010", -8], [736, "CDISCPILOT01", "MH", "01-704-1164", 6, "", "ALZHEIMER'S DISEASE", "", "", "", "", "PRIMARY DIAGNOSIS", "", "", 1.0, "SCREENING 1", -7, "2012-09-11", "2011-03-04", -8], [737, "CDISCPILOT01", "MH", "01-704-1164", 1, "E05", "VERBATIM_0443", "CONSTIPATION", "CONSTIPATION", "HLT_0402", "HLGT_0635", "SIGNIFICANT PRE-EXISTING CONDITION", "GASTROINTESTINAL DISORDERS", "MILD", 1.0, "SCREENING 1", -7, "2012-09-11", "", -8], [738, "CDISCPILOT01", "MH", "01-704-1164", 5, "", "VERBATIM_0473", "GUN SHOT WOUND", "GUN SHOT WOUND", "HLT_0015", "HLGT_0150", "HISTORICAL DIAGNOSIS", "INJURY, POISONING AND PROCEDURAL COMPLICATIONS", "", 1.0, "SCREENING 1", -7, "2012-09-11", "1986", -8], [739, "CDISCPILOT01", "MH", "01-704-1164", 4, "", "VERBATIM_1590", "HEPATITIS", "HEPATITIS", "HLT_0777", "HLGT_0292", "HISTORICAL DIAGNOSIS", "HEPATOBILIARY DISORDERS", "", 1.0, "SCREENING 1", -7, "2012-09-11", "1964", -8], [740, "CDISCPILOT01", "MH", "01-704-1164", 3, "E03", "VERBATIM_0914", "MYOCARDIAL INFARCTION", "MYOCARDIAL INFARCTION", "HLT_0649", "HLGT_0688", "SIGNIFICANT PRE-EXISTING CONDITION", "CARDIAC DISORDERS", "MILD", 1.0, "SCREENING 1", -7, "2012-09-11", "", -8], [741, "CDISCPILOT01", "MH", "01-704-1164", 2, "E04", "VERBATIM_0888", "VENTRICULAR SEPTAL DEFECT", "VENTRICULAR SEPTAL DEFECT", "HLT_0589", "HLGT_0747", "SIGNIFICANT PRE-EXISTING CONDITION", "CONGENITAL, FAMILIAL AND GENETIC DISORDERS", "MILD", 1.0, "SCREENING 1", -7, "2012-09-11", "", -8], [742, "CDISCPILOT01", "MH", "01-704-1218", 7, "", "ALZHEIMER'S DISEASE", "", "", "", "", "PRIMARY DIAGNOSIS", "", "", 1.0, "SCREENING 1", -7, "2012-11-11", "2010-08-15", -8], [743, "CDISCPILOT01", "MH", "01-704-1218", 8, "", "VERBATIM_1007", "ANGINA PECTORIS", "ANGINA PECTORIS", "HLT_0033", "HLGT_0063", "HISTORICAL DIAGNOSIS", "CARDIAC DISORDERS", "", 1.0, "SCREENING 1", -7, "2012-11-11", "2011-08", -8], [744, "CDISCPILOT01", "MH", "01-704-1218", 4, "E06", "VERBATIM_1309", "ARTHRITIS", "ARTHRITIS", "HLT_0019", "HLGT_0587", "SIGNIFICANT PRE-EXISTING CONDITION", "MUSCULOSKELETAL AND CONNECTIVE TISSUE DISORDERS", "MILD", 1.0, "SCREENING 1", -7, "2012-11-11", "", -8], [745, "CDISCPILOT01", "MH", "01-704-1218", 10, "", "VERBATIM_1637", "CATARACT OPERATION", "CATARACT OPERATION", "HLT_0432", "HLGT_0058", "HISTORICAL DIAGNOSIS", "SURGICAL AND MEDICAL PROCEDURES", "", 1.0, "SCREENING 1", -7, "2012-11-11", "2011-11", -8], [746, "CDISCPILOT01", "MH", "01-704-1218", 1, "E03", "VERBATIM_0228", "CHOLELITHIASIS", "CHOLELITHIASIS", "HLT_0084", "HLGT_0177", "SIGNIFICANT PRE-EXISTING CONDITION", "HEPATOBILIARY DISORDERS", "MILD", 1.0, "SCREENING 1", -7, "2012-11-11", "", -8], [747, "CDISCPILOT01", "MH", "01-704-1218", 6, "", "VERBATIM_1102", "CORONARY ARTERY BYPASS", "CORONARY ARTERY SURGERY", "HLT_0457", "HLGT_0045", "HISTORICAL DIAGNOSIS", "SURGICAL AND MEDICAL PROCEDURES", "", 1.0, "SCREENING 1", -7, "2012-11-11", "1997", -8], [748, "CDISCPILOT01", "MH", "01-704-1218", 3, "E02", "VERBATIM_0391", "HEARING LOSS", "DEAFNESS", "HLT_0234", "HLGT_0025", "SIGNIFICANT PRE-EXISTING CONDITION", "EAR AND LABYRINTH DISORDERS", "MILD", 1.0, "SCREENING 1", -7, "2012-11-11", "", -8], [749, "CDISCPILOT01", "MH", "01-704-1218", 2, "E01", "VERBATIM_0342", "HYPERTENSION", "HYPERTENSION", "HLT_0228", "HLGT_0476", "SIGNIFICANT PRE-EXISTING CONDITION", "VASCULAR DISORDERS", "MILD", 1.0, "SCREENING 1", -7, "2012-11-11", "", -8], [750, "CDISCPILOT01", "MH", "01-704-1218", 5, "", "VERBATIM_0954", "HEART ATTACK", "MYOCARDIAL INFARCTION", "HLT_0649", "HLGT_0688", "HISTORICAL DIAGNOSIS", "CARDIAC DISORDERS", "", 1.0, "SCREENING 1", -7, "2012-11-11", "1997", -8], [751, "CDISCPILOT01", "MH", "01-704-1218", 9, "", "VERBATIM_1277", "STENT PLACEMENT", "STENT PLACEMENT", "HLT_0645", "HLGT_0144", "HISTORICAL DIAGNOSIS", "SURGICAL AND MEDICAL PROCEDURES", "", 1.0, "SCREENING 1", -7, "2012-11-11", "2011-08", -8], [752, "CDISCPILOT01", "MH", "01-704-1233", 6, "", "ALZHEIMER'S DISEASE", "", "", "", "", "PRIMARY DIAGNOSIS", "", "", 1.0, "SCREENING 1", -7, "2013-03-08", "2011-01-15", -13], [753, "CDISCPILOT01", "MH", "01-704-1233", 4, "", "VERBATIM_1775", "APPENDECTOMY", "APPENDICECTOMY", "HLT_0707", "HLGT_0363", "HISTORICAL DIAGNOSIS", "SURGICAL AND MEDICAL PROCEDURES", "", 1.0, "SCREENING 1", -7, "2013-03-08", "1934", -13], [754, "CDISCPILOT01", "MH", "01-704-1233", 1, "E01", "VERBATIM_0391", "HEARING LOSS", "DEAFNESS", "HLT_0234", "HLGT_0025", "SIGNIFICANT PRE-EXISTING CONDITION", "EAR AND LABYRINTH DISORDERS", "MILD", 1.0, "SCREENING 1", -7, "2013-03-08", "", -13], [755, "CDISCPILOT01", "MH", "01-704-1233", 5, "", "VERBATIM_0783", "HIP REPLACEMENT", "HIP ARTHROPLASTY", "HLT_0709", "HLGT_0449", "HISTORICAL DIAGNOSIS", "SURGICAL AND MEDICAL PROCEDURES", "", 1.0, "SCREENING 1", -7, "2013-03-08", "2000", -13], [756, "CDISCPILOT01", "MH", "01-704-1233", 3, "E03", "VERBATIM_1381", "MUSCLE PAIN", "MYALGIA", "HLT_0700", "HLGT_0121", "SIGNIFICANT PRE-EXISTING CONDITION", "MUSCULOSKELETAL AND CONNECTIVE TISSUE DISORDERS", "MILD", 1.0, "SCREENING 1", -7, "2013-03-08", "", -13], [757, "CDISCPILOT01", "MH", "01-704-1233", 2, "E02", "VERBATIM_1201", "OSTEOPOROSIS", "OSTEOPOROSIS", "HLT_0381", "HLGT_0634", "SIGNIFICANT PRE-EXISTING CONDITION", "MUSCULOSKELETAL AND CONNECTIVE TISSUE DISORDERS", "MILD", 1.0, "SCREENING 1", -7, "2013-03-08", "", -13], [758, "CDISCPILOT01", "MH", "01-704-1241", 5, "", "ALZHEIMER'S DISEASE", "", "", "", "", "PRIMARY DIAGNOSIS", "", "", 1.0, "SCREENING 1", -7, "2013-08-14", "2011-07-25", -11], [759, "CDISCPILOT01", "MH", "01-704-1241", 2, "E01", "VERBATIM_0443", "CONSTIPATION", "CONSTIPATION", "HLT_0402", "HLGT_0635", "SIGNIFICANT PRE-EXISTING CONDITION", "GASTROINTESTINAL DISORDERS", "MILD", 1.0, "SCREENING 1", -7, "2013-08-14", "", -11], [760, "CDISCPILOT01", "MH", "01-704-1241", 4, "", "VERBATIM_0342", "HYPERTENSION", "HYPERTENSION", "HLT_0228", "HLGT_0476", "HISTORICAL DIAGNOSIS", "VASCULAR DISORDERS", "", 1.0, "SCREENING 1", -7, "2013-08-14", "2001-11", -11], [761, "CDISCPILOT01", "MH", "01-704-1241", 1, "E05", "VERBATIM_0423", "INFERIOR MYOCARDIAL INFARCTION", "MYOCARDIAL INFARCTION", "HLT_0649", "HLGT_0688", "SIGNIFICANT PRE-EXISTING CONDITION", "CARDIAC DISORDERS", "MILD", 1.0, "SCREENING 1", -7, "2013-08-14", "", -11], [762, "CDISCPILOT01", "MH", "01-704-1241", 3, "E04", "VERBATIM_1452", "RASH", "RASH", "HLT_0762", "HLGT_0198", "SIGNIFICANT PRE-EXISTING CONDITION", "SKIN AND SUBCUTANEOUS TISSUE DISORDERS", "MILD", 1.0, "SCREENING 1", -7, "2013-08-14", "", -11], [763, "CDISCPILOT01", "MH", "01-704-1260", 4, "", "ALZHEIMER'S DISEASE", "", "", "", "", "PRIMARY DIAGNOSIS", "", "", 1.0, "SCREENING 1", -7, "2012-08-23", "2002-11-29", -7], [764, "CDISCPILOT01", "MH", "01-704-1260", 1, "E04", "VERBATIM_1574", "GAIT DISORDER", "GAIT DISTURBANCE", "HLT_0175", "HLGT_0694", "SIGNIFICANT PRE-EXISTING CONDITION", "GENERAL DISORDERS AND ADMINISTRATION SITE CONDITIONS", "MILD", 1.0, "SCREENING 1", -7, "2012-08-23", "", -7], [765, "CDISCPILOT01", "MH", "01-704-1260", 5, "", "VERBATIM_0637", "HIP REPLACEMENT", "HIP ARTHROPLASTY", "HLT_0709", "HLGT_0449", "HISTORICAL DIAGNOSIS", "SURGICAL AND MEDICAL PROCEDURES", "", 1.0, "SCREENING 1", -7, "2012-08-23", "2012-05-14", -7], [766, "CDISCPILOT01", "MH", "01-704-1260", 3, "", "VERBATIM_0089", "REMOVAL OF KIDNEY STONE", "RENAL STONE REMOVAL", "HLT_0303", "HLGT_0633", "HISTORICAL DIAGNOSIS", "SURGICAL AND MEDICAL PROCEDURES", "", 1.0, "SCREENING 1", -7, "2012-08-23", "1992", -7], [767, "CDISCPILOT01", "MH", "01-704-1260", 2, "E03", "VERBATIM_1579", "URINARY INCONTINENCE", "URINARY INCONTINENCE", "HLT_0572", "HLGT_0128", "SIGNIFICANT PRE-EXISTING CONDITION", "RENAL AND URINARY DISORDERS", "MILD", 1.0, "SCREENING 1", -7, "2012-08-23", "", -7], [768, "CDISCPILOT01", "MH", "01-704-1266", 13, "", "ALZHEIMER'S DISEASE", "", "", "", "", "PRIMARY DIAGNOSIS", "", "", 1.0, "SCREENING 1", -7, "2013-10-05", "2011-12-02", -8], [769, "CDISCPILOT01", "MH", "01-704-1266", 9, "E06", "VERBATIM_1309", "ARTHRITIS", "ARTHRITIS", "HLT_0019", "HLGT_0587", "SIGNIFICANT PRE-EXISTING CONDITION", "MUSCULOSKELETAL AND CONNECTIVE TISSUE DISORDERS", "MILD", 1.0, "SCREENING 1", -7, "2013-10-05", "", -8], [770, "CDISCPILOT01", "MH", "01-704-1266", 6, "E04", "VERBATIM_1097", "ASTHMA", "ASTHMA", "HLT_0254", "HLGT_0380", "SIGNIFICANT PRE-EXISTING CONDITION", "RESPIRATORY, THORACIC AND MEDIASTINAL DISORDERS", "MILD", 1.0, "SCREENING 1", -7, "2013-10-05", "", -8], [771, "CDISCPILOT01", "MH", "01-704-1266", 5, "E01", "VERBATIM_0402", "ATRIAL FIBRILLATION", "ATRIAL FIBRILLATION", "HLT_0365", "HLGT_0012", "SIGNIFICANT PRE-EXISTING CONDITION", "CARDIAC DISORDERS", "MILD", 1.0, "SCREENING 1", -7, "2013-10-05", "", -8], [772, "CDISCPILOT01", "MH", "01-704-1266", 11, "", "VERBATIM_0774", "BASAL CELL CARCINOMA", "BASAL CELL CARCINOMA", "HLT_0332", "HLGT_0328", "HISTORICAL DIAGNOSIS", "NEOPLASMS BENIGN, MALIGNANT AND UNSPECIFIED (INCL CYSTS AND POLYPS)", "", 1.0, "SCREENING 1", -7, "2013-10-05", "2002", -8], [773, "CDISCPILOT01", "MH", "01-704-1266", 2, "E05", "VERBATIM_0255", "ENLARGED PROSTATE", "BENIGN PROSTATIC HYPERPLASIA", "HLT_0215", "HLGT_0568", "SIGNIFICANT PRE-EXISTING CONDITION", "REPRODUCTIVE SYSTEM AND BREAST DISORDERS", "MILD", 1.0, "SCREENING 1", -7, "2013-10-05", "", -8], [774, "CDISCPILOT01", "MH", "01-704-1266", 10, "", "VERBATIM_1170", "BIOPSY PROSTATE NORMAL", "BIOPSY PROSTATE NORMAL", "HLT_0691", "HLGT_0607", "HISTORICAL DIAGNOSIS", "INVESTIGATIONS", "", 1.0, "SCREENING 1", -7, "2013-10-05", "1998-03", -8], [775, "CDISCPILOT01", "MH", "01-704-1266", 4, "E09", "VERBATIM_0391", "HEARING LOSS", "DEAFNESS", "HLT_0234", "HLGT_0025", "SIGNIFICANT PRE-EXISTING CONDITION", "EAR AND LABYRINTH DISORDERS", "MILD", 1.0, "SCREENING 1", -7, "2013-10-05", "", -8], [776, "CDISCPILOT01", "MH", "01-704-1266", 7, "E07", "VERBATIM_1181", "ESSENTIAL TREMOR", "ESSENTIAL TREMOR", "HLT_0398", "HLGT_0631", "SIGNIFICANT PRE-EXISTING CONDITION", "NERVOUS SYSTEM DISORDERS", "MILD", 1.0, "SCREENING 1", -7, "2013-10-05", "", -8], [777, "CDISCPILOT01", "MH", "01-704-1266", 8, "E08", "VERBATIM_1206", "HEARTBEATS IRREGULAR", "HEART RATE IRREGULAR", "HLT_0765", "HLGT_0140", "SIGNIFICANT PRE-EXISTING CONDITION", "INVESTIGATIONS", "MILD", 1.0, "SCREENING 1", -7, "2013-10-05", "", -8], [778, "CDISCPILOT01", "MH", "01-704-1266", 12, "", "VERBATIM_1014", "HERNIA REPAIR", "HERNIA REPAIR", "HLT_0766", "HLGT_0696", "HISTORICAL DIAGNOSIS", "SURGICAL AND MEDICAL PROCEDURES", "", 1.0, "SCREENING 1", -7, "2013-10-05", "2007", -8], [779, "CDISCPILOT01", "MH", "01-704-1266", 14, "", "VERBATIM_1014", "HERNIA REPAIR", "HERNIA REPAIR", "HLT_0766", "HLGT_0696", "HISTORICAL DIAGNOSIS", "SURGICAL AND MEDICAL PROCEDURES", "", 1.0, "SCREENING 1", -7, "2013-10-05", "2012", -8], [780, "CDISCPILOT01", "MH", "01-704-1266", 1, "E03", "VERBATIM_0164", "HYPERCHOLESTEROLEMIA", "HYPERCHOLESTEROLAEMIA", "HLT_0025", "HLGT_0703", "SIGNIFICANT PRE-EXISTING CONDITION", "METABOLISM AND NUTRITION DISORDERS", "MILD", 1.0, "SCREENING 1", -7, "2013-10-05", "", -8], [781, "CDISCPILOT01", "MH", "01-704-1266", 3, "E02", "VERBATIM_0342", "HYPERTENSION", "HYPERTENSION", "HLT_0228", "HLGT_0476", "SIGNIFICANT PRE-EXISTING CONDITION", "VASCULAR DISORDERS", "MILD", 1.0, "SCREENING 1", -7, "2013-10-05", "", -8], [782, "CDISCPILOT01", "MH", "01-704-1323", 10, "", "ALZHEIMER'S DISEASE", "", "", "", "", "PRIMARY DIAGNOSIS", "", "", 1.0, "SCREENING 1", -7, "2013-06-13", "2010-03-23", -25], [783, "CDISCPILOT01", "MH", "01-704-1323", 2, "E06", "VERBATIM_0687", "ARTHRITIS", "ARTHRITIS", "HLT_0019", "HLGT_0587", "SIGNIFICANT PRE-EXISTING CONDITION", "MUSCULOSKELETAL AND CONNECTIVE TISSUE DISORDERS", "MILD", 1.0, "SCREENING 1", -7, "2013-06-13", "", -25], [784, "CDISCPILOT01", "MH", "01-704-1323", 1, "E04", "VERBATIM_0443", "CONSTIPATION", "CONSTIPATION", "HLT_0402", "HLGT_0635", "SIGNIFICANT PRE-EXISTING CONDITION", "GASTROINTESTINAL DISORDERS", "MILD", 1.0, "SCREENING 1", -7, "2013-06-13", "", -25], [785, "CDISCPILOT01", "MH", "01-704-1323", 3, "E02", "VERBATIM_0984", "DRY EYES", "DRY EYE", "HLT_0291", "HLGT_0314", "SIGNIFICANT PRE-EXISTING CONDITION", "EYE DISORDERS", "MILD", 1.0, "SCREENING 1", -7, "2013-06-13", "", -25], [786, "CDISCPILOT01", "MH", "01-704-1323", 9, "", "VERBATIM_0535", "STOMACH ULCER", "GASTRIC ULCER", "HLT_0119", "HLGT_0729", "HISTORICAL DIAGNOSIS", "GASTROINTESTINAL DISORDERS", "", 1.0, "SCREENING 1", -7, "2013-06-13", "2003", -25], [787, "CDISCPILOT01", "MH", "01-704-1323", 8, "", "VERBATIM_0936", "HYSTERECTOMY", "HYSTERECTOMY", "HLT_0675", "HLGT_0657", "HISTORICAL DIAGNOSIS", "SURGICAL AND MEDICAL PROCEDURES", "", 1.0, "SCREENING 1", -7, "2013-06-13", "1986", -25], [788, "CDISCPILOT01", "MH", "01-704-1323", 7, "", "VERBATIM_0743", "BOWEL OBSTRUCTION", "INTESTINAL OBSTRUCTION", "HLT_0468", "HLGT_0515", "HISTORICAL DIAGNOSIS", "GASTROINTESTINAL DISORDERS", "", 1.0, "SCREENING 1", -7, "2013-06-13", "1986", -25], [789, "CDISCPILOT01", "MH", "01-704-1323", 6, "E05", "VERBATIM_1201", "OSTEOPOROSIS", "OSTEOPOROSIS", "HLT_0381", "HLGT_0634", "SIGNIFICANT PRE-EXISTING CONDITION", "MUSCULOSKELETAL AND CONNECTIVE TISSUE DISORDERS", "MILD", 1.0, "SCREENING 1", -7, "2013-06-13", "", -25], [790, "CDISCPILOT01", "MH", "01-704-1323", 4, "E01", "VERBATIM_1016", "ALLERGIC RHINITIS", "RHINITIS ALLERGIC", "HLT_0423", "HLGT_0207", "SIGNIFICANT PRE-EXISTING CONDITION", "RESPIRATORY, THORACIC AND MEDIASTINAL DISORDERS", "MILD", 1.0, "SCREENING 1", -7, "2013-06-13", "", -25], [791, "CDISCPILOT01", "MH", "01-704-1323", 5, "E03", "VERBATIM_1029", "SEASONAL ALLERGY", "SEASONAL ALLERGY", "HLT_0714", "HLGT_0782", "SIGNIFICANT PRE-EXISTING CONDITION", "IMMUNE SYSTEM DISORDERS", "MILD", 1.0, "SCREENING 1", -7, "2013-06-13", "", -25], [792, "CDISCPILOT01", "MH", "01-704-1325", 7, "", "ALZHEIMER'S DISEASE", "", "", "", "", "PRIMARY DIAGNOSIS", "", "", 1.0, "SCREENING 1", -7, "2014-04-16", "2008-11-02", -7], [793, "CDISCPILOT01", "MH", "01-704-1325", 6, "", "VERBATIM_0369", "AORTIC ANEURYSM REPAIR", "AORTIC ANEURYSM REPAIR", "HLT_0774", "HLGT_0767", "HISTORICAL DIAGNOSIS", "SURGICAL AND MEDICAL PROCEDURES", "", 1.0, "SCREENING 1", -7, "2014-04-16", "2008", -7], [794, "CDISCPILOT01", "MH", "01-704-1325", 1, "E02", "VERBATIM_0255", "ENLARGED PROSTATE", "BENIGN PROSTATIC HYPERPLASIA", "HLT_0215", "HLGT_0568", "SIGNIFICANT PRE-EXISTING CONDITION", "REPRODUCTIVE SYSTEM AND BREAST DISORDERS", "MILD", 1.0, "SCREENING 1", -7, "2014-04-16", "", -7], [795, "CDISCPILOT01", "MH", "01-704-1325", 3, "E03", "VERBATIM_0652", "COPD", "CHRONIC OBSTRUCTIVE PULMONARY DISEASE", "HLT_0497", "HLGT_0242", "SIGNIFICANT PRE-EXISTING CONDITION", "RESPIRATORY, THORACIC AND MEDIASTINAL DISORDERS", "MILD", 1.0, "SCREENING 1", -7, "2014-04-16", "", -7], [796, "CDISCPILOT01", "MH", "01-704-1325", 2, "E01", "VERBATIM_0391", "HEARING LOSS", "DEAFNESS", "HLT_0234", "HLGT_0025", "SIGNIFICANT PRE-EXISTING CONDITION", "EAR AND LABYRINTH DISORDERS", "MILD", 1.0, "SCREENING 1", -7, "2014-04-16", "", -7], [797, "CDISCPILOT01", "MH", "01-704-1325", 4, "", "VERBATIM_0509", "STOMACH ULCER", "GASTRIC ULCER", "HLT_0119", "HLGT_0729", "HISTORICAL DIAGNOSIS", "GASTROINTESTINAL DISORDERS", "", 1.0, "SCREENING 1", -7, "2014-04-16", "1975", -7], [798, "CDISCPILOT01", "MH", "01-704-1325", 5, "", "VERBATIM_1249", "PROSTATE TRANSURETHRAL RESECTION", "TRANSURETHRAL PROSTATECTOMY", "HLT_0551", "HLGT_0320", "HISTORICAL DIAGNOSIS", "SURGICAL AND MEDICAL PROCEDURES", "", 1.0, "SCREENING 1", -7, "2014-04-16", "2006", -7], [799, "CDISCPILOT01", "MH", "01-704-1332", 4, "", "ALZHEIMER'S DISEASE", "", "", "", "", "PRIMARY DIAGNOSIS", "", "", 1.0, "SCREENING 1", -7, "2013-11-24", "2011-11-09", -15], [800, "CDISCPILOT01", "MH", "01-704-1332", 3, "", "VERBATIM_0438", "HEAD INJURY", "HEAD INJURY", "HLT_0201", "HLGT_0554", "HISTORICAL DIAGNOSIS", "INJURY, POISONING AND PROCEDURAL COMPLICATIONS", "", 1.0, "SCREENING 1", -7, "2013-11-24", "2007", -15], [801, "CDISCPILOT01", "MH", "01-704-1332", 5, "", "VERBATIM_0550", "HERNIA REPAIR", "HERNIA REPAIR", "HLT_0766", "HLGT_0696", "HISTORICAL DIAGNOSIS", "SURGICAL AND MEDICAL PROCEDURES", "", 1.0, "SCREENING 1", -7, "2013-11-24", "2013-01-23", -15], [802, "CDISCPILOT01", "MH", "01-704-1332", 2, "E03", "VERBATIM_1698", "COLD", "NASOPHARYNGITIS", "HLT_0036", "HLGT_0709", "SIGNIFICANT PRE-EXISTING CONDITION", "INFECTIONS AND INFESTATIONS", "MILD", 1.0, "SCREENING 1", -7, "2013-11-24", "", -15], [803, "CDISCPILOT01", "MH", "01-704-1332", 1, "E04", "VERBATIM_1065", "TINNITUS", "TINNITUS", "HLT_0570", "HLGT_0180", "SIGNIFICANT PRE-EXISTING CONDITION", "EAR AND LABYRINTH DISORDERS", "MILD", 1.0, "SCREENING 1", -7, "2013-11-24", "", -15], [804, "CDISCPILOT01", "MH", "01-704-1332", 6, "", "VERBATIM_1249", "PROSTATE TRANSURETHRAL RESECTION", "TRANSURETHRAL PROSTATECTOMY", "HLT_0551", "HLGT_0320", "HISTORICAL DIAGNOSIS", "SURGICAL AND MEDICAL PROCEDURES", "", 1.0, "SCREENING 1", -7, "2013-11-24", "2013-04-04", -15], [805, "CDISCPILOT01", "MH", "01-704-1351", 8, "", "ALZHEIMER'S DISEASE", "", "", "", "", "PRIMARY DIAGNOSIS", "", "", 1.0, "SCREENING 1", -7, "2013-09-26", "2012-09-10", -16], [806, "CDISCPILOT01", "MH", "01-704-1351", 2, "", "VERBATIM_1014", "HERNIA REPAIR", "HERNIA REPAIR", "HLT_0766", "HLGT_0696", "HISTORICAL DIAGNOSIS", "SURGICAL AND MEDICAL PROCEDURES", "", 1.0, "SCREENING 1", -7, "2013-09-26", "1973", -16], [807, "CDISCPILOT01", "MH", "01-704-1351", 3, "", "VERBATIM_1014", "HERNIA REPAIR", "HERNIA REPAIR", "HLT_0766", "HLGT_0696", "HISTORICAL DIAGNOSIS", "SURGICAL AND MEDICAL PROCEDURES", "", 1.0, "SCREENING 1", -7, "2013-09-26", "1986", -16], [808, "CDISCPILOT01", "MH", "01-704-1351", 4, "", "VERBATIM_1696", "MALIGNANT TUMOUR EXCISION", "MALIGNANT TUMO