{"creationDateTime": "2023-08-04T11:25:57", "datasetJSONVersion": "1.0.0", "fileOID": "UpdatedCDISCPILOT.CDISC SDTM.3.2.QSGI", "clinicalData": {"studyOID": "UpdatedCDISCPILOT.CDISC SDTM.3.2", "metaDataVersionOID": "MDV.UpdatedCDISCPILOT.CDISC SDTM.3.2", "itemGroupData": {"QSGI": {"records": 562, "name": "QSGI", "label": "Questionnaires", "items": [{"OID": "ITEMGROUPDATASEQ", "name": "ITEMGROUPDATASEQ", "label": "Record identifier", "type": "integer"}, {"OID": "IT.QSGI.STUDYID", "name": "STUDYID", "label": "Study Identifier", "type": "string", "length": 12, "keySequence": 1}, {"OID": "IT.QSGI.DOMAIN", "name": "DOMAIN", "label": "Domain Abbreviation", "type": "string", "length": 2}, {"OID": "IT.QSGI.USUBJID", "name": "USUBJID", "label": "Unique Subject Identifier", "type": "string", "length": 11, "keySequence": 2}, {"OID": "IT.QSGI.QSSEQ", "name": "QSSEQ", "label": "Sequence Number", "type": "integer", "length": 8}, {"OID": "IT.QSGI.QSTESTCD", "name": "QSTESTCD", "label": "Question Short Name", "type": "string", "length": 8, "keySequence": 3}, {"OID": "IT.QSGI.QSTEST", "name": "QSTEST", "label": "Question Name", "type": "string", "length": 40}, {"OID": "IT.QSGI.QSCAT", "name": "QSCAT", "label": "Category of Question", "type": "string", "length": 70}, {"OID": "IT.QSGI.QSSCAT", "name": "QSSCAT", "label": "Subcategory for Question", "type": "string", "length": 26}, {"OID": "IT.QSGI.QSORRES", "name": "QSORRES", "label": "Finding in Original Units", "type": "string", "length": 20}, {"OID": "IT.QSGI.QSORRESU", "name": "QSORRESU", "label": "Original Units", "type": "string", "length": 7}, {"OID": "IT.QSGI.QSSTRESC", "name": "QSSTRESC", "label": "Character Result/Finding in Std Format", "type": "string", "length": 4}, {"OID": "IT.QSGI.QSSTRESN", "name": "QSSTRESN", "label": "Numeric Finding in Standard Units", "type": "integer", "length": 8}, {"OID": "IT.QSGI.QSSTRESU", "name": "QSSTRESU", "label": "Standard Units", "type": "string", "length": 7}, {"OID": "IT.QSGI.QSSTAT", "name": "QSSTAT", "label": "Completion Status", "type": "string", "length": 8}, {"OID": "IT.QSGI.QSREASND", "name": "QSREASND", "label": "Reason Not Performed", "type": "string", "length": 17}, {"OID": "IT.QSGI.QSBLFL", "name": "QSBLFL", "label": "Baseline Flag", "type": "string", "length": 1}, {"OID": "IT.QSGI.QSDRVFL", "name": "QSDRVFL", "label": "Derived Flag", "type": "string", "length": 1}, {"OID": "IT.QSGI.VISITNUM", "name": "VISITNUM", "label": "Visit Number", "type": "float", "length": 8, "keySequence": 4}, {"OID": "IT.QSGI.VISIT", "name": "VISIT", "label": "Visit Name", "type": "string", "length": 19}, {"OID": "IT.QSGI.VISITDY", "name": "VISITDY", "label": "Planned Study Day of Visit", "type": "integer", "length": 8}, {"OID": "IT.QSGI.EPOCH", "name": "EPOCH", "label": "Epoch", "type": "string", "length": 9}, {"OID": "IT.QSGI.QSDTC", "name": "QSDTC", "label": "Date/Time of Finding", "type": "string", "length": 10}, {"OID": "IT.QSGI.QSDY", "name": "QSDY", "label": "Study Day of Finding", "type": "integer", "length": 8}], "itemData": [[1, "CDISCPILOT01", "QS", "01-701-1015", 6001, "CIBIC", "EXTENT OF CHANGE, IF ANY, SINCE BASELINE", "ADCS-CGIC", "", "NO CHANGE", "", "4", 4, "", "", "", "", "", 8.0, "WEEK 8", 56, "TREATMENT", "2014-03-05", 63], [2, "CDISCPILOT01", "QS", "01-701-1015", 6002, "CIBIC", "EXTENT OF CHANGE, IF ANY, SINCE BASELINE", "ADCS-CGIC", "", "NO CHANGE", "", "4", 4, "", "", "", "", "", 10.0, "WEEK 16", 112, "TREATMENT", "2014-05-07", 126], [3, "CDISCPILOT01", "QS", "01-701-1015", 6003, "CIBIC", "EXTENT OF CHANGE, IF ANY, SINCE BASELINE", "ADCS-CGIC", "", "NO CHANGE", "", "4", 4, "", "", "", "", "", 12.0, "WEEK 24", 168, "TREATMENT", "2014-06-18", 168], [4, "CDISCPILOT01", "QS", "01-701-1023", 6001, "CIBIC", "EXTENT OF CHANGE, IF ANY, SINCE BASELINE", "ADCS-CGIC", "", "MINIMAL IMPROVEMENT", "", "3", 3, "", "", "", "", "", 5.0, "WEEK 4", 28, "TREATMENT", "2012-09-02", 29], [5, "CDISCPILOT01", "QS", "01-701-1023", 6002, "CIBIC", "EXTENT OF CHANGE, IF ANY, SINCE BASELINE", "ADCS-CGIC", "", "MINIMAL WORSENING", "", "5", 5, "", "", "", "", "", 201.0, "RETRIEVAL", 168, "TREATMENT", "2013-02-18", 198], [6, "CDISCPILOT01", "QS", "01-701-1028", 6001, "CIBIC", "EXTENT OF CHANGE, IF ANY, SINCE BASELINE", "ADCS-CGIC", "", "NO CHANGE", "", "4", 4, "", "", "", "", "", 8.0, "WEEK 8", 56, "TREATMENT", "2013-09-10", 54], [7, "CDISCPILOT01", "QS", "01-701-1028", 6002, "CIBIC", "EXTENT OF CHANGE, IF ANY, SINCE BASELINE", "ADCS-CGIC", "", "NO CHANGE", "", "4", 4, "", "", "", "", "", 10.0, "WEEK 16", 112, "TREATMENT", "2013-11-06", 111], [8, "CDISCPILOT01", "QS", "01-701-1028", 6003, "CIBIC", "EXTENT OF CHANGE, IF ANY, SINCE BASELINE", "ADCS-CGIC", "", "NO CHANGE", "", "4", 4, "", "", "", "", "", 12.0, "WEEK 24", 168, "TREATMENT", "2014-01-06", 172], [9, "CDISCPILOT01", "QS", "01-701-1033", 6001, "CIBIC", "EXTENT OF CHANGE, IF ANY, SINCE BASELINE", "ADCS-CGIC", "", "NO CHANGE", "", "4", 4, "", "", "", "", "", 5.0, "WEEK 4", 28, "TREATMENT", "2014-04-14", 28], [10, "CDISCPILOT01", "QS", "01-701-1033", 6002, "CIBIC", "EXTENT OF CHANGE, IF ANY, SINCE BASELINE", "ADCS-CGIC", "", "NO CHANGE", "", "4", 4, "", "", "", "", "", 201.0, "RETRIEVAL", 168, "TREATMENT", "2014-09-15", 182], [11, "CDISCPILOT01", "QS", "01-701-1034", 6001, "CIBIC", "EXTENT OF CHANGE, IF ANY, SINCE BASELINE", "ADCS-CGIC", "", "NO CHANGE", "", "4", 4, "", "", "", "", "", 8.0, "WEEK 8", 56, "TREATMENT", "2014-08-26", 57], [12, "CDISCPILOT01", "QS", "01-701-1034", 6002, "CIBIC", "EXTENT OF CHANGE, IF ANY, SINCE BASELINE", "ADCS-CGIC", "", "MINIMAL IMPROVEMENT", "", "3", 3, "", "", "", "", "", 10.0, "WEEK 16", 112, "TREATMENT", "2014-10-21", 113], [13, "CDISCPILOT01", "QS", "01-701-1034", 6003, "CIBIC", "EXTENT OF CHANGE, IF ANY, SINCE BASELINE", "ADCS-CGIC", "", "NO CHANGE", "", "4", 4, "", "", "", "", "", 12.0, "WEEK 24", 168, "TREATMENT", "2014-12-17", 170], [14, "CDISCPILOT01", "QS", "01-701-1047", 6001, "CIBIC", "EXTENT OF CHANGE, IF ANY, SINCE BASELINE", "ADCS-CGIC", "", "NO CHANGE", "", "4", 4, "", "", "", "", "", 6.0, "AMBUL ECG REMOVAL", 30, "TREATMENT", "2013-03-29", 46], [15, "CDISCPILOT01", "QS", "01-701-1047", 6002, "CIBIC", "EXTENT OF CHANGE, IF ANY, SINCE BASELINE", "ADCS-CGIC", "", "MINIMAL WORSENING", "", "5", 5, "", "", "", "", "", 201.0, "RETRIEVAL", 168, "TREATMENT", "2013-07-28", 167], [16, "CDISCPILOT01", "QS", "01-701-1097", 6001, "CIBIC", "EXTENT OF CHANGE, IF ANY, SINCE BASELINE", "ADCS-CGIC", "", "MINIMAL IMPROVEMENT", "", "3", 3, "", "", "", "", "", 8.0, "WEEK 8", 56, "TREATMENT", "2014-02-26", 57], [17, "CDISCPILOT01", "QS", "01-701-1097", 6002, "CIBIC", "EXTENT OF CHANGE, IF ANY, SINCE BASELINE", "ADCS-CGIC", "", "NO CHANGE", "", "4", 4, "", "", "", "", "", 10.0, "WEEK 16", 112, "TREATMENT", "2014-04-23", 113], [18, "CDISCPILOT01", "QS", "01-701-1097", 6003, "CIBIC", "EXTENT OF CHANGE, IF ANY, SINCE BASELINE", "ADCS-CGIC", "", "MINIMAL IMPROVEMENT", "", "3", 3, "", "", "", "", "", 12.0, "WEEK 24", 168, "TREATMENT", "2014-06-18", 169], [19, "CDISCPILOT01", "QS", "01-701-1111", 6001, "CIBIC", "EXTENT OF CHANGE, IF ANY, SINCE BASELINE", "ADCS-CGIC", "", "NO CHANGE", "", "4", 4, "", "", "", "", "", 4.0, "WEEK 2", 14, "TREATMENT", "2012-09-17", 11], [20, "CDISCPILOT01", "QS", "01-701-1111", 6002, "CIBIC", "EXTENT OF CHANGE, IF ANY, SINCE BASELINE", "ADCS-CGIC", "", "MINIMAL WORSENING", "", "5", 5, "", "", "", "", "", 201.0, "RETRIEVAL", 168, "TREATMENT", "2013-02-22", 169], [21, "CDISCPILOT01", "QS", "01-701-1115", 6001, "CIBIC", "EXTENT OF CHANGE, IF ANY, SINCE BASELINE", "ADCS-CGIC", "", "NO CHANGE", "", "4", 4, "", "", "", "", "", 8.0, "WEEK 8", 56, "TREATMENT", "2013-01-23", 55], [22, "CDISCPILOT01", "QS", "01-701-1115", 6002, "CIBIC", "EXTENT OF CHANGE, IF ANY, SINCE BASELINE", "ADCS-CGIC", "", "MINIMAL WORSENING", "", "5", 5, "", "", "", "", "", 201.0, "RETRIEVAL", 168, "TREATMENT", "2013-05-20", 172], [23, "CDISCPILOT01", "QS", "01-701-1118", 6001, "CIBIC", "EXTENT OF CHANGE, IF ANY, SINCE BASELINE", "ADCS-CGIC", "", "NO CHANGE", "", "4", 4, "", "", "", "", "", 8.0, "WEEK 8", 56, "TREATMENT", "2014-05-08", 58], [24, "CDISCPILOT01", "QS", "01-701-1118", 6002, "CIBIC", "EXTENT OF CHANGE, IF ANY, SINCE BASELINE", "ADCS-CGIC", "", "NO CHANGE", "", "4", 4, "", "", "", "", "", 10.0, "WEEK 16", 112, "TREATMENT", "2014-07-02", 113], [25, "CDISCPILOT01", "QS", "01-701-1118", 6003, "CIBIC", "EXTENT OF CHANGE, IF ANY, SINCE BASELINE", "ADCS-CGIC", "", "NO CHANGE", "", "4", 4, "", "", "", "", "", 12.0, "WEEK 24", 168, "TREATMENT", "2014-08-27", 169], [26, "CDISCPILOT01", "QS", "01-701-1130", 6001, "CIBIC", "EXTENT OF CHANGE, IF ANY, SINCE BASELINE", "ADCS-CGIC", "", "MINIMAL IMPROVEMENT", "", "3", 3, "", "", "", "", "", 8.0, "WEEK 8", 56, "TREATMENT", "2014-04-12", 57], [27, "CDISCPILOT01", "QS", "01-701-1130", 6002, "CIBIC", "EXTENT OF CHANGE, IF ANY, SINCE BASELINE", "ADCS-CGIC", "", "MINIMAL IMPROVEMENT", "", "3", 3, "", "", "", "", "", 10.0, "WEEK 16", 112, "TREATMENT", "2014-06-07", 113], [28, "CDISCPILOT01", "QS", "01-701-1130", 6003, "CIBIC", "EXTENT OF CHANGE, IF ANY, SINCE BASELINE", "ADCS-CGIC", "", "MINIMAL IMPROVEMENT", "", "3", 3, "", "", "", "", "", 12.0, "WEEK 24", 168, "TREATMENT", "2014-08-02", 169], [29, "CDISCPILOT01", "QS", "01-701-1133", 6001, "CIBIC", "EXTENT OF CHANGE, IF ANY, SINCE BASELINE", "ADCS-CGIC", "", "NO CHANGE", "", "4", 4, "", "", "", "", "", 8.0, "WEEK 8", 56, "TREATMENT", "2012-12-24", 58], [30, "CDISCPILOT01", "QS", "01-701-1133", 6002, "CIBIC", "EXTENT OF CHANGE, IF ANY, SINCE BASELINE", "ADCS-CGIC", "", "MINIMAL WORSENING", "", "5", 5, "", "", "", "", "", 10.0, "WEEK 16", 112, "TREATMENT", "2013-02-18", 114], [31, "CDISCPILOT01", "QS", "01-701-1133", 6003, "CIBIC", "EXTENT OF CHANGE, IF ANY, SINCE BASELINE", "ADCS-CGIC", "", "MINIMAL WORSENING", "", "5", 5, "", "", "", "", "", 12.0, "WEEK 24", 168, "TREATMENT", "2013-04-18", 173], [32, "CDISCPILOT01", "QS", "01-701-1146", 6001, "CIBIC", "EXTENT OF CHANGE, IF ANY, SINCE BASELINE", "ADCS-CGIC", "", "NO CHANGE", "", "4", 4, "", "", "", "", "", 7.0, "WEEK 6", 42, "TREATMENT", "2013-06-30", 42], [33, "CDISCPILOT01", "QS", "01-701-1148", 6001, "CIBIC", "EXTENT OF CHANGE, IF ANY, SINCE BASELINE", "ADCS-CGIC", "", "MINIMAL WORSENING", "", "5", 5, "", "", "", "", "", 8.0, "WEEK 8", 56, "TREATMENT", "2013-10-18", 57], [34, "CDISCPILOT01", "QS", "01-701-1148", 6002, "CIBIC", "EXTENT OF CHANGE, IF ANY, SINCE BASELINE", "ADCS-CGIC", "", "NO CHANGE", "", "4", 4, "", "", "", "", "", 10.0, "WEEK 16", 112, "TREATMENT", "2013-12-13", 113], [35, "CDISCPILOT01", "QS", "01-701-1148", 6003, "CIBIC", "EXTENT OF CHANGE, IF ANY, SINCE BASELINE", "ADCS-CGIC", "", "MINIMAL WORSENING", "", "5", 5, "", "", "", "", "", 12.0, "WEEK 24", 168, "TREATMENT", "2014-02-08", 170], [36, "CDISCPILOT01", "QS", "01-701-1153", 6001, "CIBIC", "EXTENT OF CHANGE, IF ANY, SINCE BASELINE", "ADCS-CGIC", "", "NO CHANGE", "", "4", 4, "", "", "", "", "", 8.0, "WEEK 8", 56, "TREATMENT", "2013-11-18", 57], [37, "CDISCPILOT01", "QS", "01-701-1153", 6002, "CIBIC", "EXTENT OF CHANGE, IF ANY, SINCE BASELINE", "ADCS-CGIC", "", "NO CHANGE", "", "4", 4, "", "", "", "", "", 10.0, "WEEK 16", 112, "TREATMENT", "2014-01-08", 108], [38, "CDISCPILOT01", "QS", "01-701-1153", 6003, "CIBIC", "EXTENT OF CHANGE, IF ANY, SINCE BASELINE", "ADCS-CGIC", "", "NO CHANGE", "", "4", 4, "", "", "", "", "", 12.0, "WEEK 24", 168, "TREATMENT", "2014-03-11", 170], [39, "CDISCPILOT01", "QS", "01-701-1180", 6001, "CIBIC", "EXTENT OF CHANGE, IF ANY, SINCE BASELINE", "ADCS-CGIC", "", "MINIMAL WORSENING", "", "5", 5, "", "", "", "", "", 7.0, "WEEK 6", 42, "TREATMENT", "2013-03-23", 40], [40, "CDISCPILOT01", "QS", "01-701-1181", 6001, "CIBIC", "EXTENT OF CHANGE, IF ANY, SINCE BASELINE", "ADCS-CGIC", "", "NO CHANGE", "", "4", 4, "", "", "", "", "", 4.0, "WEEK 2", 14, "TREATMENT", "2013-12-12", 8], [41, "CDISCPILOT01", "QS", "01-701-1181", 6002, "CIBIC", "EXTENT OF CHANGE, IF ANY, SINCE BASELINE", "ADCS-CGIC", "", "MINIMAL WORSENING", "", "5", 5, "", "", "", "", "", 201.0, "RETRIEVAL", 168, "TREATMENT", "2014-05-23", 170], [42, "CDISCPILOT01", "QS", "01-701-1188", 6001, "CIBIC", "EXTENT OF CHANGE, IF ANY, SINCE BASELINE", "ADCS-CGIC", "", "NO CHANGE", "", "4", 4, "", "", "", "", "", 7.0, "WEEK 6", 42, "TREATMENT", "2013-03-25", 39], [43, "CDISCPILOT01", "QS", "01-701-1188", 6002, "CIBIC", "EXTENT OF CHANGE, IF ANY, SINCE BASELINE", "ADCS-CGIC", "", "NO CHANGE", "", "4", 4, "", "", "", "", "", 201.0, "RETRIEVAL", 168, "TREATMENT", "2013-08-04", 171], [44, "CDISCPILOT01", "QS", "01-701-1192", 6001, "CIBIC", "EXTENT OF CHANGE, IF ANY, SINCE BASELINE", "ADCS-CGIC", "", "MINIMAL WORSENING", "", "5", 5, "", "", "", "", "", 8.0, "WEEK 8", 56, "TREATMENT", "2012-09-23", 64], [45, "CDISCPILOT01", "QS", "01-701-1192", 6002, "CIBIC", "EXTENT OF CHANGE, IF ANY, SINCE BASELINE", "ADCS-CGIC", "", "NO CHANGE", "", "4", 4, "", "", "", "", "", 10.0, "WEEK 16", 112, "TREATMENT", "2012-11-15", 117], [46, "CDISCPILOT01", "QS", "01-701-1192", 6003, "CIBIC", "EXTENT OF CHANGE, IF ANY, SINCE BASELINE", "ADCS-CGIC", "", "NO CHANGE", "", "4", 4, "", "", "", "", "", 12.0, "WEEK 24", 168, "TREATMENT", "2013-01-11", 174], [47, "CDISCPILOT01", "QS", "01-701-1203", 6001, "CIBIC", "EXTENT OF CHANGE, IF ANY, SINCE BASELINE", "ADCS-CGIC", "", "NO CHANGE", "", "4", 4, "", "", "", "", "", 8.0, "WEEK 8", 56, "TREATMENT", "2013-03-30", 57], [48, "CDISCPILOT01", "QS", "01-701-1203", 6002, "CIBIC", "EXTENT OF CHANGE, IF ANY, SINCE BASELINE", "ADCS-CGIC", "", "NO CHANGE", "", "4", 4, "", "", "", "", "", 10.0, "WEEK 16", 112, "TREATMENT", "2013-05-25", 113], [49, "CDISCPILOT01", "QS", "01-701-1203", 6003, "CIBIC", "EXTENT OF CHANGE, IF ANY, SINCE BASELINE", "ADCS-CGIC", "", "NO CHANGE", "", "4", 4, "", "", "", "", "", 12.0, "WEEK 24", 168, "TREATMENT", "2013-07-22", 171], [50, "CDISCPILOT01", "QS", "01-701-1211", 6001, "CIBIC", "EXTENT OF CHANGE, IF ANY, SINCE BASELINE", "ADCS-CGIC", "", "MINIMAL WORSENING", "", "5", 5, "", "", "", "", "", 8.0, "WEEK 8", 56, "TREATMENT", "2013-01-08", 55], [51, "CDISCPILOT01", "QS", "01-701-1234", 6001, "CIBIC", "EXTENT OF CHANGE, IF ANY, SINCE BASELINE", "ADCS-CGIC", "", "MINIMAL IMPROVEMENT", "", "3", 3, "", "", "", "", "", 8.0, "WEEK 8", 56, "TREATMENT", "2013-05-26", 58], [52, "CDISCPILOT01", "QS", "01-701-1234", 6002, "CIBIC", "EXTENT OF CHANGE, IF ANY, SINCE BASELINE", "ADCS-CGIC", "", "NO CHANGE", "", "4", 4, "", "", "", "", "", 10.0, "WEEK 16", 112, "TREATMENT", "2013-07-27", 120], [53, "CDISCPILOT01", "QS", "01-701-1234", 6003, "CIBIC", "EXTENT OF CHANGE, IF ANY, SINCE BASELINE", "ADCS-CGIC", "", "NO CHANGE", "", "4", 4, "", "", "", "", "", 12.0, "WEEK 24", 168, "TREATMENT", "2013-09-10", 165], [54, "CDISCPILOT01", "QS", "01-701-1239", 6001, "CIBIC", "EXTENT OF CHANGE, IF ANY, SINCE BASELINE", "ADCS-CGIC", "", "MINIMAL IMPROVEMENT", "", "3", 3, "", "", "", "", "", 8.0, "WEEK 8", 56, "TREATMENT", "2014-03-06", 55], [55, "CDISCPILOT01", "QS", "01-701-1239", 6002, "CIBIC", "EXTENT OF CHANGE, IF ANY, SINCE BASELINE", "ADCS-CGIC", "", "MODERATE IMPROVEMENT", "", "2", 2, "", "", "", "", "", 10.0, "WEEK 16", 112, "TREATMENT", "2014-05-02", 112], [56, "CDISCPILOT01", "QS", "01-701-1239", 6003, "CIBIC", "EXTENT OF CHANGE, IF ANY, SINCE BASELINE", "ADCS-CGIC", "", "MINIMAL IMPROVEMENT", "", "3", 3, "", "", "", "", "", 12.0, "WEEK 24", 168, "TREATMENT", "2014-06-27", 168], [57, "CDISCPILOT01", "QS", "01-701-1275", 6001, "CIBIC", "EXTENT OF CHANGE, IF ANY, SINCE BASELINE", "ADCS-CGIC", "", "MINIMAL IMPROVEMENT", "", "3", 3, "", "", "", "", "", 8.0, "WEEK 8", 56, "TREATMENT", "2014-04-05", 58], [58, "CDISCPILOT01", "QS", "01-701-1275", 6002, "CIBIC", "EXTENT OF CHANGE, IF ANY, SINCE BASELINE", "ADCS-CGIC", "", "NO CHANGE", "", "4", 4, "", "", "", "", "", 10.0, "WEEK 16", 112, "TREATMENT", "2014-06-14", 128], [59, "CDISCPILOT01", "QS", "01-701-1287", 6001, "CIBIC", "EXTENT OF CHANGE, IF ANY, SINCE BASELINE", "ADCS-CGIC", "", "NO CHANGE", "", "4", 4, "", "", "", "", "", 8.0, "WEEK 8", 56, "TREATMENT", "2014-03-21", 56], [60, "CDISCPILOT01", "QS", "01-701-1287", 6002, "CIBIC", "EXTENT OF CHANGE, IF ANY, SINCE BASELINE", "ADCS-CGIC", "", "NO CHANGE", "", "4", 4, "", "", "", "", "", 10.0, "WEEK 16", 112, "TREATMENT", "2014-05-15", 111], [61, "CDISCPILOT01", "QS", "01-701-1287", 6003, "CIBIC", "EXTENT OF CHANGE, IF ANY, SINCE BASELINE", "ADCS-CGIC", "", "NO CHANGE", "", "4", 4, "", "", "", "", "", 12.0, "WEEK 24", 168, "TREATMENT", "2014-07-12", 169], [62, "CDISCPILOT01", "QS", "01-701-1294", 6001, "CIBIC", "EXTENT OF CHANGE, IF ANY, SINCE BASELINE", "ADCS-CGIC", "", "MINIMAL WORSENING", "", "5", 5, "", "", "", "", "", 8.0, "WEEK 8", 56, "TREATMENT", "2013-05-22", 60], [63, "CDISCPILOT01", "QS", "01-701-1294", 6002, "CIBIC", "EXTENT OF CHANGE, IF ANY, SINCE BASELINE", "ADCS-CGIC", "", "NO CHANGE", "", "4", 4, "", "", "", "", "", 9.0, "WEEK 12", 84, "TREATMENT", "2013-06-14", 83], [64, "CDISCPILOT01", "QS", "01-701-1294", 6003, "CIBIC", "EXTENT OF CHANGE, IF ANY, SINCE BASELINE", "ADCS-CGIC", "", "MINIMAL WORSENING", "", "5", 5, "", "", "", "", "", 201.0, "RETRIEVAL", 168, "TREATMENT", "2013-10-08", 199], [65, "CDISCPILOT01", "QS", "01-701-1302", 6001, "CIBIC", "EXTENT OF CHANGE, IF ANY, SINCE BASELINE", "ADCS-CGIC", "", "NO CHANGE", "", "4", 4, "", "", "", "", "", 8.0, "WEEK 8", 56, "TREATMENT", "2013-10-22", 55], [66, "CDISCPILOT01", "QS", "01-701-1302", 6002, "CIBIC", "EXTENT OF CHANGE, IF ANY, SINCE BASELINE", "ADCS-CGIC", "", "MINIMAL WORSENING", "", "5", 5, "", "", "", "", "", 9.0, "WEEK 12", 84, "TREATMENT", "2013-11-05", 69], [67, "CDISCPILOT01", "QS", "01-701-1302", 6003, "CIBIC", "EXTENT OF CHANGE, IF ANY, SINCE BASELINE", "ADCS-CGIC", "", "NO CHANGE", "", "4", 4, "", "", "", "", "", 201.0, "RETRIEVAL", 168, "TREATMENT", "2014-02-13", 169], [68, "CDISCPILOT01", "QS", "01-701-1317", 6001, "CIBIC", "EXTENT OF CHANGE, IF ANY, SINCE BASELINE", "ADCS-CGIC", "", "NO CHANGE", "", "4", 4, "", "", "", "", "", 8.0, "WEEK 8", 56, "TREATMENT", "2014-07-22", 62], [69, "CDISCPILOT01", "QS", "01-701-1317", 6002, "CIBIC", "EXTENT OF CHANGE, IF ANY, SINCE BASELINE", "ADCS-CGIC", "", "NO CHANGE", "", "4", 4, "", "", "", "", "", 10.0, "WEEK 16", 112, "TREATMENT", "2014-09-11", 113], [70, "CDISCPILOT01", "QS", "01-701-1317", 6003, "CIBIC", "EXTENT OF CHANGE, IF ANY, SINCE BASELINE", "ADCS-CGIC", "", "NO CHANGE", "", "4", 4, "", "", "", "", "", 12.0, "WEEK 24", 168, "TREATMENT", "2014-11-06", 169], [71, "CDISCPILOT01", "QS", "01-701-1324", 6001, "CIBIC", "EXTENT OF CHANGE, IF ANY, SINCE BASELINE", "ADCS-CGIC", "", "NO CHANGE", "", "4", 4, "", "", "", "", "", 8.0, "WEEK 8", 56, "TREATMENT", "2012-11-25", 55], [72, "CDISCPILOT01", "QS", "01-701-1324", 6002, "CIBIC", "EXTENT OF CHANGE, IF ANY, SINCE BASELINE", "ADCS-CGIC", "", "NO CHANGE", "", "4", 4, "", "", "", "", "", 10.0, "WEEK 16", 112, "TREATMENT", "2013-01-22", 113], [73, "CDISCPILOT01", "QS", "01-701-1324", 6003, "CIBIC", "EXTENT OF CHANGE, IF ANY, SINCE BASELINE", "ADCS-CGIC", "", "MINIMAL WORSENING", "", "5", 5, "", "", "", "", "", 12.0, "WEEK 24", 168, "TREATMENT", "2013-03-19", 169], [74, "CDISCPILOT01", "QS", "01-701-1341", 6001, "CIBIC", "EXTENT OF CHANGE, IF ANY, SINCE BASELINE", "ADCS-CGIC", "", "NO CHANGE", "", "4", 4, "", "", "", "", "", 5.0, "WEEK 4", 28, "TREATMENT", "2013-02-07", 34], [75, "CDISCPILOT01", "QS", "01-701-1345", 6001, "CIBIC", "EXTENT OF CHANGE, IF ANY, SINCE BASELINE", "ADCS-CGIC", "", "NO CHANGE", "", "4", 4, "", "", "", "", "", 8.0, "WEEK 8", 56, "TREATMENT", "2013-12-03", 57], [76, "CDISCPILOT01", "QS", "01-701-1345", 6002, "CIBIC", "EXTENT OF CHANGE, IF ANY, SINCE BASELINE", "ADCS-CGIC", "", "MINIMAL WORSENING", "", "5", 5, "", "", "", "", "", 10.0, "WEEK 16", 112, "TREATMENT", "2014-01-27", 112], [77, "CDISCPILOT01", "QS", "01-701-1345", 6003, "CIBIC", "EXTENT OF CHANGE, IF ANY, SINCE BASELINE", "ADCS-CGIC", "", "MINIMAL WORSENING", "", "5", 5, "", "", "", "", "", 12.0, "WEEK 24", 168, "TREATMENT", "2014-03-18", 162], [78, "CDISCPILOT01", "QS", "01-701-1360", 6001, "CIBIC", "EXTENT OF CHANGE, IF ANY, SINCE BASELINE", "ADCS-CGIC", "", "NO CHANGE", "", "4", 4, "", "", "", "", "", 4.0, "WEEK 2", 14, "TREATMENT", "2013-08-14", 15], [79, "CDISCPILOT01", "QS", "01-701-1360", 6002, "CIBIC", "EXTENT OF CHANGE, IF ANY, SINCE BASELINE", "ADCS-CGIC", "", "NO CHANGE", "", "4", 4, "", "", "", "", "", 201.0, "RETRIEVAL", 168, "TREATMENT", "2014-02-11", 196], [80, "CDISCPILOT01", "QS", "01-701-1363", 6001, "CIBIC", "EXTENT OF CHANGE, IF ANY, SINCE BASELINE", "ADCS-CGIC", "", "MINIMAL WORSENING", "", "5", 5, "", "", "", "", "", 8.0, "WEEK 8", 56, "TREATMENT", "2013-07-24", 56], [81, "CDISCPILOT01", "QS", "01-701-1363", 6002, "CIBIC", "EXTENT OF CHANGE, IF ANY, SINCE BASELINE", "ADCS-CGIC", "", "NO CHANGE", "", "4", 4, "", "", "", "", "", 10.0, "WEEK 16", 112, "TREATMENT", "2013-09-18", 112], [82, "CDISCPILOT01", "QS", "01-701-1363", 6003, "CIBIC", "EXTENT OF CHANGE, IF ANY, SINCE BASELINE", "ADCS-CGIC", "", "MINIMAL WORSENING", "", "5", 5, "", "", "", "", "", 12.0, "WEEK 24", 168, "TREATMENT", "2013-11-13", 168], [83, "CDISCPILOT01", "QS", "01-701-1383", 6001, "CIBIC", "EXTENT OF CHANGE, IF ANY, SINCE BASELINE", "ADCS-CGIC", "", "NO CHANGE", "", "4", 4, "", "", "", "", "", 8.0, "WEEK 8", 56, "TREATMENT", "2013-04-02", 58], [84, "CDISCPILOT01", "QS", "01-701-1383", 6002, "CIBIC", "EXTENT OF CHANGE, IF ANY, SINCE BASELINE", "ADCS-CGIC", "", "NO CHANGE", "", "4", 4, "", "", "", "", "", 10.0, "WEEK 16", 112, "TREATMENT", "2013-05-30", 116], [85, "CDISCPILOT01", "QS", "01-701-1383", 6003, "CIBIC", "EXTENT OF CHANGE, IF ANY, SINCE BASELINE", "ADCS-CGIC", "", "MINIMAL WORSENING", "", "5", 5, "", "", "", "", "", 12.0, "WEEK 24", 168, "TREATMENT", "2013-07-30", 177], [86, "CDISCPILOT01", "QS", "01-701-1387", 6001, "CIBIC", "EXTENT OF CHANGE, IF ANY, SINCE BASELINE", "ADCS-CGIC", "", "MINIMAL IMPROVEMENT", "", "3", 3, "", "", "", "", "", 4.0, "WEEK 2", 14, "TREATMENT", "2014-03-25", 14], [87, "CDISCPILOT01", "QS", "01-701-1387", 6002, "CIBIC", "EXTENT OF CHANGE, IF ANY, SINCE BASELINE", "ADCS-CGIC", "", "MODERATE WORSENING", "", "6", 6, "", "", "", "", "", 201.0, "RETRIEVAL", 168, "TREATMENT", "2014-08-27", 169], [88, "CDISCPILOT01", "QS", "01-701-1392", 6001, "CIBIC", "EXTENT OF CHANGE, IF ANY, SINCE BASELINE", "ADCS-CGIC", "", "NO CHANGE", "", "4", 4, "", "", "", "", "", 8.0, "WEEK 8", 56, "TREATMENT", "2012-12-20", 54], [89, "CDISCPILOT01", "QS", "01-701-1392", 6002, "CIBIC", "EXTENT OF CHANGE, IF ANY, SINCE BASELINE", "ADCS-CGIC", "", "MINIMAL WORSENING", "", "5", 5, "", "", "", "", "", 10.0, "WEEK 16", 112, "TREATMENT", "2013-02-17", 113], [90, "CDISCPILOT01", "QS", "01-701-1392", 6003, "CIBIC", "EXTENT OF CHANGE, IF ANY, SINCE BASELINE", "ADCS-CGIC", "", "NO CHANGE", "", "4", 4, "", "", "", "", "", 12.0, "WEEK 24", 168, "TREATMENT", "2013-04-15", 170], [91, "CDISCPILOT01", "QS", "01-701-1415", 6001, "CIBIC", "EXTENT OF CHANGE, IF ANY, SINCE BASELINE", "ADCS-CGIC", "", "MINIMAL WORSENING", "", "5", 5, "", "", "", "", "", 8.0, "WEEK 8", 56, "TREATMENT", "2013-11-21", 60], [92, "CDISCPILOT01", "QS", "01-701-1415", 6002, "CIBIC", "EXTENT OF CHANGE, IF ANY, SINCE BASELINE", "ADCS-CGIC", "", "NO CHANGE", "", "4", 4, "", "", "", "", "", 10.0, "WEEK 16", 112, "TREATMENT", "2014-01-14", 114], [93, "CDISCPILOT01", "QS", "01-701-1415", 6003, "CIBIC", "EXTENT OF CHANGE, IF ANY, SINCE BASELINE", "ADCS-CGIC", "", "NO CHANGE", "", "4", 4, "", "", "", "", "", 12.0, "WEEK 24", 168, "TREATMENT", "2014-03-10", 169], [94, "CDISCPILOT01", "QS", "01-701-1429", 6001, "CIBIC", "EXTENT OF CHANGE, IF ANY, SINCE BASELINE", "ADCS-CGIC", "", "MINIMAL IMPROVEMENT", "", "3", 3, "", "", "", "", "", 7.0, "WEEK 6", 42, "TREATMENT", "2013-04-30", 43], [95, "CDISCPILOT01", "QS", "01-701-1440", 6001, "CIBIC", "EXTENT OF CHANGE, IF ANY, SINCE BASELINE", "ADCS-CGIC", "", "MINIMAL IMPROVEMENT", "", "3", 3, "", "", "", "", "", 8.0, "WEEK 8", 56, "TREATMENT", "2013-10-03", 57], [96, "CDISCPILOT01", "QS", "01-701-1440", 6002, "CIBIC", "EXTENT OF CHANGE, IF ANY, SINCE BASELINE", "ADCS-CGIC", "", "MINIMAL WORSENING", "", "5", 5, "", "", "", "", "", 10.0, "WEEK 16", 112, "TREATMENT", "2013-11-27", 112], [97, "CDISCPILOT01", "QS", "01-701-1440", 6003, "CIBIC", "EXTENT OF CHANGE, IF ANY, SINCE BASELINE", "ADCS-CGIC", "", "MINIMAL WORSENING", "", "5", 5, "", "", "", "", "", 12.0, "WEEK 24", 168, "TREATMENT", "2014-01-22", 168], [98, "CDISCPILOT01", "QS", "01-701-1442", 6001, "CIBIC", "EXTENT OF CHANGE, IF ANY, SINCE BASELINE", "ADCS-CGIC", "", "NO CHANGE", "", "4", 4, "", "", "", "", "", 8.0, "WEEK 8", 56, "TREATMENT", "2013-12-26", 62], [99, "CDISCPILOT01", "QS", "01-701-1442", 6002, "CIBIC", "EXTENT OF CHANGE, IF ANY, SINCE BASELINE", "ADCS-CGIC", "", "NO CHANGE", "", "4", 4, "", "", "", "", "", 10.0, "WEEK 16", 112, "TREATMENT", "2014-02-15", 113], [100, "CDISCPILOT01", "QS", "01-701-1442", 6003, "CIBIC", "EXTENT OF CHANGE, IF ANY, SINCE BASELINE", "ADCS-CGIC", "", "NO CHANGE", "", "4", 4, "", "", "", "", "", 12.0, "WEEK 24", 168, "TREATMENT", "2014-04-17", 174], [101, "CDISCPILOT01", "QS", "01-701-1444", 6001, "CIBIC", "EXTENT OF CHANGE, IF ANY, SINCE BASELINE", "ADCS-CGIC", "", "MINIMAL WORSENING", "", "5", 5, "", "", "", "", "", 7.0, "WEEK 6", 42, "TREATMENT", "2013-02-13", 40], [102, "CDISCPILOT01", "QS", "01-701-1444", 6002, "CIBIC", "EXTENT OF CHANGE, IF ANY, SINCE BASELINE", "ADCS-CGIC", "", "MINIMAL WORSENING", "", "5", 5, "", "", "", "", "", 201.0, "RETRIEVAL", 168, "TREATMENT", "2013-06-20", 167], [103, "CDISCPILOT01", "QS", "01-702-1082", 6001, "CIBIC", "EXTENT OF CHANGE, IF ANY, SINCE BASELINE", "ADCS-CGIC", "", "NO CHANGE", "", "4", 4, "", "", "", "", "", 8.0, "WEEK 8", 56, "TREATMENT", "2013-09-28", 65], [104, "CDISCPILOT01", "QS", "01-702-1082", 6002, "CIBIC", "EXTENT OF CHANGE, IF ANY, SINCE BASELINE", "ADCS-CGIC", "", "NO CHANGE", "", "4", 4, "", "", "", "", "", 9.0, "WEEK 12", 84, "TREATMENT", "2013-11-17", 115], [105, "CDISCPILOT01", "QS", "01-703-1042", 6001, "CIBIC", "EXTENT OF CHANGE, IF ANY, SINCE BASELINE", "ADCS-CGIC", "", "NO CHANGE", "", "4", 4, "", "", "", "", "", 10.0, "WEEK 16", 112, "TREATMENT", "2013-06-22", 113], [106, "CDISCPILOT01", "QS", "01-703-1042", 6002, "CIBIC", "EXTENT OF CHANGE, IF ANY, SINCE BASELINE", "ADCS-CGIC", "", "NO CHANGE", "", "4", 4, "", "", "", "", "", 12.0, "WEEK 24", 168, "TREATMENT", "2013-08-09", 161], [107, "CDISCPILOT01", "QS", "01-703-1076", 6001, "CIBIC", "EXTENT OF CHANGE, IF ANY, SINCE BASELINE", "ADCS-CGIC", "", "MINIMAL IMPROVEMENT", "", "3", 3, "", "", "", "", "", 8.0, "WEEK 8", 56, "TREATMENT", "2013-12-17", 54], [108, "CDISCPILOT01", "QS", "01-703-1076", 6002, "CIBIC", "EXTENT OF CHANGE, IF ANY, SINCE BASELINE", "ADCS-CGIC", "", "MINIMAL IMPROVEMENT", "", "3", 3, "", "", "", "", "", 9.0, "WEEK 12", 84, "TREATMENT", "2013-12-24", 61], [109, "CDISCPILOT01", "QS", "01-703-1086", 6001, "CIBIC", "EXTENT OF CHANGE, IF ANY, SINCE BASELINE", "ADCS-CGIC", "", "MINIMAL IMPROVEMENT", "", "3", 3, "", "", "", "", "", 8.0, "WEEK 8", 56, "TREATMENT", "2012-10-27", 56], [110, "CDISCPILOT01", "QS", "01-703-1086", 6002, "CIBIC", "EXTENT OF CHANGE, IF ANY, SINCE BASELINE", "ADCS-CGIC", "", "MINIMAL IMPROVEMENT", "", "3", 3, "", "", "", "", "", 10.0, "WEEK 16", 112, "TREATMENT", "2012-12-24", 114], [111, "CDISCPILOT01", "QS", "01-703-1086", 6003, "CIBIC", "EXTENT OF CHANGE, IF ANY, SINCE BASELINE", "ADCS-CGIC", "", "MINIMAL IMPROVEMENT", "", "3", 3, "", "", "", "", "", 201.0, "RETRIEVAL", 168, "TREATMENT", "2013-03-26", 206], [112, "CDISCPILOT01", "QS", "01-703-1100", 6001, "CIBIC", "EXTENT OF CHANGE, IF ANY, SINCE BASELINE", "ADCS-CGIC", "", "NO CHANGE", "", "4", 4, "", "", "", "", "", 8.0, "WEEK 8", 56, "TREATMENT", "2013-05-08", 57], [113, "CDISCPILOT01", "QS", "01-703-1100", 6002, "CIBIC", "EXTENT OF CHANGE, IF ANY, SINCE BASELINE", "ADCS-CGIC", "", "NO CHANGE", "", "4", 4, "", "", "", "", "", 10.0, "WEEK 16", 112, "TREATMENT", "2013-07-03", 113], [114, "CDISCPILOT01", "QS", "01-703-1100", 6003, "CIBIC", "EXTENT OF CHANGE, IF ANY, SINCE BASELINE", "ADCS-CGIC", "", "MINIMAL WORSENING", "", "5", 5, "", "", "", "", "", 12.0, "WEEK 24", 168, "TREATMENT", "2013-08-28", 169], [115, "CDISCPILOT01", "QS", "01-703-1119", 6001, "CIBIC", "EXTENT OF CHANGE, IF ANY, SINCE BASELINE", "ADCS-CGIC", "", "NO CHANGE", "", "4", 4, "", "", "", "", "", 8.0, "WEEK 8", 56, "TREATMENT", "2013-04-19", 59], [116, "CDISCPILOT01", "QS", "01-703-1119", 6002, "CIBIC", "EXTENT OF CHANGE, IF ANY, SINCE BASELINE", "ADCS-CGIC", "", "MINIMAL WORSENING", "", "5", 5, "", "", "", "", "", 10.0, "WEEK 16", 112, "TREATMENT", "2013-06-13", 114], [117, "CDISCPILOT01", "QS", "01-703-1119", 6003, "CIBIC", "EXTENT OF CHANGE, IF ANY, SINCE BASELINE", "ADCS-CGIC", "", "MINIMAL WORSENING", "", "5", 5, "", "", "", "", "", 201.0, "RETRIEVAL", 168, "TREATMENT", "2013-08-24", 186], [118, "CDISCPILOT01", "QS", "01-703-1175", 6001, "CIBIC", "EXTENT OF CHANGE, IF ANY, SINCE BASELINE", "ADCS-CGIC", "", "NO CHANGE", "", "4", 4, "", "", "", "", "", 4.0, "WEEK 2", 14, "TREATMENT", "2013-12-31", 12], [119, "CDISCPILOT01", "QS", "01-703-1182", 6001, "CIBIC", "EXTENT OF CHANGE, IF ANY, SINCE BASELINE", "ADCS-CGIC", "", "NO CHANGE", "", "4", 4, "", "", "", "", "", 8.0, "WEEK 8", 56, "TREATMENT", "2013-12-12", 57], [120, "CDISCPILOT01", "QS", "01-703-1197", 6001, "CIBIC", "EXTENT OF CHANGE, IF ANY, SINCE BASELINE", "ADCS-CGIC", "", "NO CHANGE", "", "4", 4, "", "", "", "", "", 4.0, "WEEK 2", 14, "TREATMENT", "2013-07-22", 37], [121, "CDISCPILOT01", "QS", "01-703-1210", 6001, "CIBIC", "EXTENT OF CHANGE, IF ANY, SINCE BASELINE", "ADCS-CGIC", "", "MINIMAL WORSENING", "", "5", 5, "", "", "", "", "", 8.0, "WEEK 8", 56, "TREATMENT", "2013-05-10", 56], [122, "CDISCPILOT01", "QS", "01-703-1210", 6002, "CIBIC", "EXTENT OF CHANGE, IF ANY, SINCE BASELINE", "ADCS-CGIC", "", "NO CHANGE", "", "4", 4, "", "", "", "", "", 10.0, "WEEK 16", 112, "TREATMENT", "2013-07-05", 112], [123, "CDISCPILOT01", "QS", "01-703-1210", 6003, "CIBIC", "EXTENT OF CHANGE, IF ANY, SINCE BASELINE", "ADCS-CGIC", "", "MINIMAL WORSENING", "", "5", 5, "", "", "", "", "", 12.0, "WEEK 24", 168, "TREATMENT", "2013-08-24", 162], [124, "CDISCPILOT01", "QS", "01-703-1258", 6001, "CIBIC", "EXTENT OF CHANGE, IF ANY, SINCE BASELINE", "ADCS-CGIC", "", "MINIMAL WORSENING", "", "5", 5, "", "", "", "", "", 8.0, "WEEK 8", 56, "TREATMENT", "2012-09-14", 57], [125, "CDISCPILOT01", "QS", "01-703-1258", 6002, "CIBIC", "EXTENT OF CHANGE, IF ANY, SINCE BASELINE", "ADCS-CGIC", "", "NO CHANGE", "", "4", 4, "", "", "", "", "", 10.0, "WEEK 16", 112, "TREATMENT", "2012-11-05", 109], [126, "CDISCPILOT01", "QS", "01-703-1258", 6003, "CIBIC", "EXTENT OF CHANGE, IF ANY, SINCE BASELINE", "ADCS-CGIC", "", "MINIMAL WORSENING", "", "5", 5, "", "", "", "", "", 12.0, "WEEK 24", 168, "TREATMENT", "2012-12-31", 165], [127, "CDISCPILOT01", "QS", "01-703-1295", 6001, "CIBIC", "EXTENT OF CHANGE, IF ANY, SINCE BASELINE", "ADCS-CGIC", "", "MINIMAL WORSENING", "", "5", 5, "", "", "", "", "", 8.0, "WEEK 8", 56, "TREATMENT", "2014-01-15", 56], [128, "CDISCPILOT01", "QS", "01-703-1295", 6002, "CIBIC", "EXTENT OF CHANGE, IF ANY, SINCE BASELINE", "ADCS-CGIC", "", "NO CHANGE", "", "4", 4, "", "", "", "", "", 10.0, "WEEK 16", 112, "TREATMENT", "2014-03-13", 113], [129, "CDISCPILOT01", "QS", "01-703-1299", 6001, "CIBIC", "EXTENT OF CHANGE, IF ANY, SINCE BASELINE", "ADCS-CGIC", "", "MINIMAL IMPROVEMENT", "", "3", 3, "", "", "", "", "", 8.0, "WEEK 8", 56, "TREATMENT", "2012-11-07", 57], [130, "CDISCPILOT01", "QS", "01-703-1299", 6002, "CIBIC", "EXTENT OF CHANGE, IF ANY, SINCE BASELINE", "ADCS-CGIC", "", "NO CHANGE", "", "4", 4, "", "", "", "", "", 10.0, "WEEK 16", 112, "TREATMENT", "2013-01-02", 113], [131, "CDISCPILOT01", "QS", "01-703-1299", 6003, "CIBIC", "EXTENT OF CHANGE, IF ANY, SINCE BASELINE", "ADCS-CGIC", "", "NO CHANGE", "", "4", 4, "", "", "", "", "", 12.0, "WEEK 24", 168, "TREATMENT", "2013-03-01", 171], [132, "CDISCPILOT01", "QS", "01-703-1335", 6001, "CIBIC", "EXTENT OF CHANGE, IF ANY, SINCE BASELINE", "ADCS-CGIC", "", "MINIMAL WORSENING", "", "5", 5, "", "", "", "", "", 7.0, "WEEK 6", 42, "TREATMENT", "2014-05-24", 69], [133, "CDISCPILOT01", "QS", "01-703-1379", 6001, "CIBIC", "EXTENT OF CHANGE, IF ANY, SINCE BASELINE", "ADCS-CGIC", "", "NO CHANGE", "", "4", 4, "", "", "", "", "", 8.0, "WEEK 8", 56, "TREATMENT", "2013-11-17", 57], [134, "CDISCPILOT01", "QS", "01-703-1379", 6002, "CIBIC", "EXTENT OF CHANGE, IF ANY, SINCE BASELINE", "ADCS-CGIC", "", "NO CHANGE", "", "4", 4, "", "", "", "", "", 10.0, "WEEK 16", 112, "TREATMENT", "2014-01-11", 112], [135, "CDISCPILOT01", "QS", "01-703-1379", 6003, "CIBIC", "EXTENT OF CHANGE, IF ANY, SINCE BASELINE", "ADCS-CGIC", "", "MINIMAL WORSENING", "", "5", 5, "", "", "", "", "", 12.0, "WEEK 24", 168, "TREATMENT", "2014-03-08", 168], [136, "CDISCPILOT01", "QS", "01-703-1439", 6001, "CIBIC", "EXTENT OF CHANGE, IF ANY, SINCE BASELINE", "ADCS-CGIC", "", "NO CHANGE", "", "4", 4, "", "", "", "", "", 8.0, "WEEK 8", 56, "TREATMENT", "2014-05-05", 55], [137, "CDISCPILOT01", "QS", "01-703-1439", 6002, "CIBIC", "EXTENT OF CHANGE, IF ANY, SINCE BASELINE", "ADCS-CGIC", "", "MINIMAL WORSENING", "", "5", 5, "", "", "", "", "", 10.0, "WEEK 16", 112, "TREATMENT", "2014-06-30", 111], [138, "CDISCPILOT01", "QS", "01-703-1439", 6003, "CIBIC", "EXTENT OF CHANGE, IF ANY, SINCE BASELINE", "ADCS-CGIC", "", "MINIMAL WORSENING", "", "5", 5, "", "", "", "", "", 12.0, "WEEK 24", 168, "TREATMENT", "2014-08-28", 170], [139, "CDISCPILOT01", "QS", "01-704-1008", 6001, "CIBIC", "EXTENT OF CHANGE, IF ANY, SINCE BASELINE", "ADCS-CGIC", "", "MINIMAL WORSENING", "", "5", 5, "", "", "", "", "", 7.0, "WEEK 6", 42, "TREATMENT", "2013-02-25", 44], [140, "CDISCPILOT01", "QS", "01-704-1009", 6001, "CIBIC", "EXTENT OF CHANGE, IF ANY, SINCE BASELINE", "ADCS-CGIC", "", "NO CHANGE", "", "4", 4, "", "", "", "", "", 5.0, "WEEK 4", 28, "TREATMENT", "2013-10-02", 37], [141, "CDISCPILOT01", "QS", "01-704-1010", 6001, "CIBIC", "EXTENT OF CHANGE, IF ANY, SINCE BASELINE", "ADCS-CGIC", "", "NO CHANGE", "", "4", 4, "", "", "", "", "", 8.0, "WEEK 8", 56, "TREATMENT", "2014-04-24", 63], [142, "CDISCPILOT01", "QS", "01-704-1010", 6002, "CIBIC", "EXTENT OF CHANGE, IF ANY, SINCE BASELINE", "ADCS-CGIC", "", "MINIMAL IMPROVEMENT", "", "3", 3, "", "", "", "", "", 10.0, "WEEK 16", 112, "TREATMENT", "2014-06-13", 113], [143, "CDISCPILOT01", "QS", "01-704-1010", 6003, "CIBIC", "EXTENT OF CHANGE, IF ANY, SINCE BASELINE", "ADCS-CGIC", "", "MINIMAL IMPROVEMENT", "", "3", 3, "", "", "", "", "", 11.0, "WEEK 20", 140, "TREATMENT", "2014-07-09", 139], [144, "CDISCPILOT01", "QS", "01-704-1017", 6001, "CIBIC", "EXTENT OF CHANGE, IF ANY, SINCE BASELINE", "ADCS-CGIC", "", "NO CHANGE", "", "4", 4, "", "", "", "", "", 7.0, "WEEK 6", 42, "TREATMENT", "2013-11-24", 50], [145, "CDISCPILOT01", "QS", "01-704-1025", 6001, "CIBIC", "EXTENT OF CHANGE, IF ANY, SINCE BASELINE", "ADCS-CGIC", "", "NO CHANGE", "", "4", 4, "", "", "", "", "", 6.0, "AMBUL ECG REMOVAL", 30, "TREATMENT", "2013-11-29", 64], [146, "CDISCPILOT01", "QS", "01-704-1065", 6001, "CIBIC", "EXTENT OF CHANGE, IF ANY, SINCE BASELINE", "ADCS-CGIC", "", "NO CHANGE", "", "4", 4, "", "", "", "", "", 8.0, "WEEK 8", 56, "TREATMENT", "2013-12-20", 58], [147, "CDISCPILOT01", "QS", "01-704-1065", 6002, "CIBIC", "EXTENT OF CHANGE, IF ANY, SINCE BASELINE", "ADCS-CGIC", "", "MINIMAL WORSENING", "", "5", 5, "", "", "", "", "", 9.0, "WEEK 12", 84, "TREATMENT", "2013-12-24", 62], [148, "CDISCPILOT01", "QS", "01-704-1074", 6001, "CIBIC", "EXTENT OF CHANGE, IF ANY, SINCE BASELINE", "ADCS-CGIC", "", "NO CHANGE", "", "4", 4, "", "", "", "", "", 8.0, "WEEK 8", 56, "TREATMENT", "2014-03-31", 69], [149, "CDISCPILOT01", "QS", "01-704-1093", 6001, "CIBIC", "EXTENT OF CHANGE, IF ANY, SINCE BASELINE", "ADCS-CGIC", "", "NO CHANGE", "", "4", 4, "", "", "", "", "", 8.0, "WEEK 8", 56, "TREATMENT", "2013-05-11", 58], [150, "CDISCPILOT01", "QS", "01-704-1093", 6002, "CIBIC", "EXTENT OF CHANGE, IF ANY, SINCE BASELINE", "ADCS-CGIC", "", "NO CHANGE", "", "4", 4, "", "", "", "", "", 10.0, "WEEK 16", 112, "TREATMENT", "2013-06-20", 98], [151, "CDISCPILOT01", "QS", "01-704-1093", 6003, "CIBIC", "EXTENT OF CHANGE, IF ANY, SINCE BASELINE", "ADCS-CGIC", "", "MODERATE WORSENING", "", "6", 6, "", "", "", "", "", 201.0, "RETRIEVAL", 168, "TREATMENT", "2013-12-25", 286], [152, "CDISCPILOT01", "QS", "01-704-1114", 6001, "CIBIC", "EXTENT OF CHANGE, IF ANY, SINCE BASELINE", "ADCS-CGIC", "", "NO CHANGE", "", "4", 4, "", "", "", "", "", 8.0, "WEEK 8", 56, "TREATMENT", "2013-03-26", 63], [153, "CDISCPILOT01", "QS", "01-704-1114", 6002, "CIBIC", "EXTENT OF CHANGE, IF ANY, SINCE BASELINE", "ADCS-CGIC", "", "NO CHANGE", "", "4", 4, "", "", "", "", "", 10.0, "WEEK 16", 112, "TREATMENT", "2013-05-14", 112], [154, "CDISCPILOT01", "QS", "01-704-1114", 6003, "CIBIC", "EXTENT OF CHANGE, IF ANY, SINCE BASELINE", "ADCS-CGIC", "", "NO CHANGE", "", "4", 4, "", "", "", "", "", 12.0, "WEEK 24", 168, "TREATMENT", "2013-07-08", 167], [155, "CDISCPILOT01", "QS", "01-704-1120", 6001, "CIBIC", "EXTENT OF CHANGE, IF ANY, SINCE BASELINE", "ADCS-CGIC", "", "NO CHANGE", "", "4", 4, "", "", "", "", "", 8.0, "WEEK 8", 56, "TREATMENT", "2014-01-27", 57], [156, "CDISCPILOT01", "QS", "01-704-1120", 6002, "CIBIC", "EXTENT OF CHANGE, IF ANY, SINCE BASELINE", "ADCS-CGIC", "", "NO CHANGE", "", "4", 4, "", "", "", "", "", 9.0, "WEEK 12", 84, "TREATMENT", "2014-02-03", 64], [157, "CDISCPILOT01", "QS", "01-704-1127", 6001, "CIBIC", "EXTENT OF CHANGE, IF ANY, SINCE BASELINE", "ADCS-CGIC", "", "NO CHANGE", "", "4", 4, "", "", "", "", "", 8.0, "WEEK 8", 56, "TREATMENT", "2013-11-26", 56], [158, "CDISCPILOT01", "QS", "01-704-1127", 6002, "CIBIC", "EXTENT OF CHANGE, IF ANY, SINCE BASELINE", "ADCS-CGIC", "", "MINIMAL WORSENING", "", "5", 5, "", "", "", "", "", 10.0, "WEEK 16", 112, "TREATMENT", "2014-01-21", 112], [159, "CDISCPILOT01", "QS", "01-704-1127", 6003, "CIBIC", "EXTENT OF CHANGE, IF ANY, SINCE BASELINE", "ADCS-CGIC", "", "MINIMAL WORSENING", "", "5", 5, "", "", "", "", "", 12.0, "WEEK 24", 168, "TREATMENT", "2014-03-17", 167], [160, "CDISCPILOT01", "QS", "01-704-1135", 6001, "CIBIC", "EXTENT OF CHANGE, IF ANY, SINCE BASELINE", "ADCS-CGIC", "", "NO CHANGE", "", "4", 4, "", "", "", "", "", 8.0, "WEEK 8", 56, "TREATMENT", "2013-12-25", 56], [161, "CDISCPILOT01", "QS", "01-704-1135", 6002, "CIBIC", "EXTENT OF CHANGE, IF ANY, SINCE BASELINE", "ADCS-CGIC", "", "NO CHANGE", "", "4", 4, "", "", "", "", "", 10.0, "WEEK 16", 112, "TREATMENT", "2014-02-19", 112], [162, "CDISCPILOT01", "QS", "01-704-1135", 6003, "CIBIC", "EXTENT OF CHANGE, IF ANY, SINCE BASELINE", "ADCS-CGIC", "", "MODERATE WORSENING", "", "6", 6, "", "", "", "", "", 12.0, "WEEK 24", 168, "TREATMENT", "2014-05-01", 183], [163, "CDISCPILOT01", "QS", "01-704-1164", 6001, "CIBIC", "EXTENT OF CHANGE, IF ANY, SINCE BASELINE", "ADCS-CGIC", "", "NO CHANGE", "", "4", 4, "", "", "", "", "", 8.0, "WEEK 8", 56, "TREATMENT", "2012-11-15", 58], [164, "CDISCPILOT01", "QS", "01-704-1164", 6002, "CIBIC", "EXTENT OF CHANGE, IF ANY, SINCE BASELINE", "ADCS-CGIC", "", "MINIMAL WORSENING", "", "5", 5, "", "", "", "", "", 10.0, "WEEK 16", 112, "TREATMENT", "2013-01-14", 118], [165, "CDISCPILOT01", "QS", "01-704-1164", 6003, "CIBIC", "EXTENT OF CHANGE, IF ANY, SINCE BASELINE", "ADCS-CGIC", "", "MINIMAL WORSENING", "", "5", 5, "", "", "", "", "", 12.0, "WEEK 24", 168, "TREATMENT", "2013-03-17", 180], [166, "CDISCPILOT01", "QS", "01-704-1218", 6001, "CIBIC", "EXTENT OF CHANGE, IF ANY, SINCE BASELINE", "ADCS-CGIC", "", "MINIMAL WORSENING", "", "5", 5, "", "", "", "", "", 8.0, "WEEK 8", 56, "TREATMENT", "2013-01-14", 57], [167, "CDISCPILOT01", "QS", "01-704-1218", 6002, "CIBIC", "EXTENT OF CHANGE, IF ANY, SINCE BASELINE", "ADCS-CGIC", "", "MINIMAL WORSENING", "", "5", 5, "", "", "", "", "", 10.0, "WEEK 16", 112, "TREATMENT", "2013-03-18", 120], [168, "CDISCPILOT01", "QS", "01-704-1218", 6003, "CIBIC", "EXTENT OF CHANGE, IF ANY, SINCE BASELINE", "ADCS-CGIC", "", "MINIMAL WORSENING", "", "5", 5, "", "", "", "", "", 12.0, "WEEK 24", 168, "TREATMENT", "2013-05-13", 176], [169, "CDISCPILOT01", "QS", "01-704-1233", 6001, "CIBIC", "EXTENT OF CHANGE, IF ANY, SINCE BASELINE", "ADCS-CGIC", "", "MINIMAL WORSENING", "", "5", 5, "", "", "", "", "", 10.0, "WEEK 16", 112, "TREATMENT", "2013-07-11", 113], [170, "CDISCPILOT01", "QS", "01-704-1241", 6001, "CIBIC", "EXTENT OF CHANGE, IF ANY, SINCE BASELINE", "ADCS-CGIC", "", "NO CHANGE", "", "4", 4, "", "", "", "", "", 8.0, "WEEK 8", 56, "TREATMENT", "2013-10-31", 68], [171, "CDISCPILOT01", "QS", "01-704-1260", 6001, "CIBIC", "EXTENT OF CHANGE, IF ANY, SINCE BASELINE", "ADCS-CGIC", "", "NO CHANGE", "", "4", 4, "", "", "", "", "", 8.0, "WEEK 8", 56, "TREATMENT", "2012-10-24", 56], [172, "CDISCPILOT01", "QS", "01-704-1266", 6001, "CIBIC", "EXTENT OF CHANGE, IF ANY, SINCE BASELINE", "ADCS-CGIC", "", "NO CHANGE", "", "4", 4, "", "", "", "", "", 8.0, "WEEK 8", 56, "TREATMENT", "2013-12-06", 55], [173, "CDISCPILOT01", "QS", "01-704-1325", 6001, "CIBIC", "EXTENT OF CHANGE, IF ANY, SINCE BASELINE", "ADCS-CGIC", "", "NO CHANGE", "", "4", 4, "", "", "", "", "", 8.0, "WEEK 8", 56, "TREATMENT", "2014-06-18", 57], [174, "CDISCPILOT01", "QS", "01-704-1325", 6002, "CIBIC", "EXTENT OF CHANGE, IF ANY, SINCE BASELINE", "ADCS-CGIC", "", "NO CHANGE", "", "4", 4, "", "", "", "", "", 10.0, "WEEK 16", 112, "TREATMENT", "2014-08-06", 106], [175, "CDISCPILOT01", "QS", "01-704-1332", 6001, "CIBIC", "EXTENT OF CHANGE, IF ANY, SINCE BASELINE", "ADCS-CGIC", "", "NO CHANGE", "", "4", 4, "", "", "", "", "", 8.0, "WEEK 8", 56, "TREATMENT", "2014-02-03", 57], [176, "CDISCPILOT01", "QS", "01-704-1351", 6001, "CIBIC", "EXTENT OF CHANGE, IF ANY, SINCE BASELINE", "ADCS-CGIC", "", "NO CHANGE", "", "4", 4, "", "", "", "", "", 8.0, "WEEK 8", 56, "TREATMENT", "2013-12-02", 52], [177, "CDISCPILOT01", "QS", "01-704-1351", 6002, "CIBIC", "EXTENT OF CHANGE, IF ANY, SINCE BASELINE", "ADCS-CGIC", "", "NO CHANGE", "", "4", 4, "", "", "", "", "", 10.0, "WEEK 16", 112, "TREATMENT", "2014-01-26", 107], [178, "CDISCPILOT01", "QS", "01-704-1351", 6003, "CIBIC", "EXTENT OF CHANGE, IF ANY, SINCE BASELINE", "ADCS-CGIC", "", "MINIMAL WORSENING", "", "5", 5, "", "", "", "", "", 12.0, "WEEK 24", 168, "TREATMENT", "2014-04-04", 175], [179, "CDISCPILOT01", "QS", "01-704-1388", 6001, "CIBIC", "EXTENT OF CHANGE, IF ANY, SINCE BASELINE", "ADCS-CGIC", "", "NO CHANGE", "", "4", 4, "", "", "", "", "", 8.0, "WEEK 8", 56, "TREATMENT", "2013-01-30", 55], [180, "CDISCPILOT01", "QS", "01-704-1388", 6002, "CIBIC", "EXTENT OF CHANGE, IF ANY, SINCE BASELINE", "ADCS-CGIC", "", "NO CHANGE", "", "4", 4, "", "", "", "", "", 10.0, "WEEK 16", 112, "TREATMENT", "2013-03-27", 111], [181, "CDISCPILOT01", "QS", "01-704-1388", 6003, "CIBIC", "EXTENT OF CHANGE, IF ANY, SINCE BASELINE", "ADCS-CGIC", "", "NO CHANGE", "", "4", 4, "", "", "", "", "", 12.0, "WEEK 24", 168, "TREATMENT", "2013-05-23", 168], [182, "CDISCPILOT01", "QS", "01-704-1435", 6001, "CIBIC", "EXTENT OF CHANGE, IF ANY, SINCE BASELINE", "ADCS-CGIC", "", "NO CHANGE", "", "4", 4, "", "", "", "", "", 8.0, "WEEK 8", 56, "TREATMENT", "2013-01-12", 57], [183, "CDISCPILOT01", "QS", "01-704-1445", 6001, "CIBIC", "EXTENT OF CHANGE, IF ANY, SINCE BASELINE", "ADCS-CGIC", "", "MODERATE WORSENING", "", "6", 6, "", "", "", "", "", 8.0, "WEEK 8", 56, "TREATMENT", "2014-07-09", 60], [184, "CDISCPILOT01", "QS", "01-704-1445", 6002, "CIBIC", "EXTENT OF CHANGE, IF ANY, SINCE BASELINE", "ADCS-CGIC", "", "MINIMAL WORSENING", "", "5", 5, "", "", "", "", "", 10.0, "WEEK 16", 112, "TREATMENT", "2014-09-03", 116], [185, "CDISCPILOT01", "QS", "01-705-1031", 6001, "CIBIC", "EXTENT OF CHANGE, IF ANY, SINCE BASELINE", "ADCS-CGIC", "", "NO CHANGE", "", "4", 4, "", "", "", "", "", 8.0, "WEEK 8", 56, "TREATMENT", "2014-01-23", 58], [186, "CDISCPILOT01", "QS", "01-705-1031", 6002, "CIBIC", "EXTENT OF CHANGE, IF ANY, SINCE BASELINE", "ADCS-CGIC", "", "NO CHANGE", "", "4", 4, "", "", "", "", "", 10.0, "WEEK 16", 112, "TREATMENT", "2014-03-20", 114], [187, "CDISCPILOT01", "QS", "01-705-1031", 6003, "CIBIC", "EXTENT OF CHANGE, IF ANY, SINCE BASELINE", "ADCS-CGIC", "", "NO CHANGE", "", "4", 4, "", "", "", "", "", 12.0, "WEEK 24", 168, "TREATMENT", "2014-05-11", 166], [188, "CDISCPILOT01", "QS", "01-705-1059", 6001, "CIBIC", "EXTENT OF CHANGE, IF ANY, SINCE BASELINE", "ADCS-CGIC", "", "MINIMAL IMPROVEMENT", "", "3", 3, "", "", "", "", "", 8.0, "WEEK 8", 56, "TREATMENT", "2013-10-03", 60], [189, "CDISCPILOT01", "QS", "01-705-1059", 6002, "CIBIC", "EXTENT OF CHANGE, IF ANY, SINCE BASELINE", "ADCS-CGIC", "", "MINIMAL IMPROVEMENT", "", "3", 3, "", "", "", "", "", 10.0, "WEEK 16", 112, "TREATMENT", "2013-12-05", 123], [190, "CDISCPILOT01", "QS", "01-705-1059", 6003, "CIBIC", "EXTENT OF CHANGE, IF ANY, SINCE BASELINE", "ADCS-CGIC", "", "MINIMAL IMPROVEMENT", "", "3", 3, "", "", "", "", "", 201.0, "RETRIEVAL", 168, "TREATMENT", "2014-02-06", 186], [191, "CDISCPILOT01", "QS", "01-705-1186", 6001, "CIBIC", "EXTENT OF CHANGE, IF ANY, SINCE BASELINE", "ADCS-CGIC", "", "NO CHANGE", "", "4", 4, "", "", "", "", "", 5.0, "WEEK 4", 28, "TREATMENT", "2014-02-07", 31], [192, "CDISCPILOT01", "QS", "01-705-1199", 6001, "CIBIC", "EXTENT OF CHANGE, IF ANY, SINCE BASELINE", "ADCS-CGIC", "", "NO CHANGE", "", "4", 4, "", "", "", "", "", 4.0, "WEEK 2", 14, "TREATMENT", "2013-09-29", 14], [193, "CDISCPILOT01", "QS", "01-705-1280", 6001, "CIBIC", "EXTENT OF CHANGE, IF ANY, SINCE BASELINE", "ADCS-CGIC", "", "NO CHANGE", "", "4", 4, "", "", "", "", "", 8.0, "WEEK 8", 56, "TREATMENT", "2014-03-21", 64], [194, "CDISCPILOT01", "QS", "01-705-1280", 6002, "CIBIC", "EXTENT OF CHANGE, IF ANY, SINCE BASELINE", "ADCS-CGIC", "", "NO CHANGE", "", "4", 4, "", "", "", "", "", 10.0, "WEEK 16", 112, "TREATMENT", "2014-05-16", 120], [195, "CDISCPILOT01", "QS", "01-705-1280", 6003, "CIBIC", "EXTENT OF CHANGE, IF ANY, SINCE BASELINE", "ADCS-CGIC", "", "NO CHANGE", "", "4", 4, "", "", "", "", "", 12.0, "WEEK 24", 168, "TREATMENT", "2014-07-11", 176], [196, "CDISCPILOT01", "QS", "01-705-1281", 6001, "CIBIC", "EXTENT OF CHANGE, IF ANY, SINCE BASELINE", "ADCS-CGIC", "", "NO CHANGE", "", "4", 4, "", "", "", "", "", 8.0, "WEEK 8", 56, "TREATMENT", "2014-01-21", 55], [197, "CDISCPILOT01", "QS", "01-705-1281", 6002, "CIBIC", "EXTENT OF CHANGE, IF ANY, SINCE BASELINE", "ADCS-CGIC", "", "NO CHANGE", "", "4", 4, "", "", "", "", "", 10.0, "WEEK 16", 112, "TREATMENT", "2014-03-17", 110], [198, "CDISCPILOT01", "QS", "01-705-1282", 6001, "CIBIC", "EXTENT OF CHANGE, IF ANY, SINCE BASELINE", "ADCS-CGIC", "", "NO CHANGE", "", "4", 4, "", "", "", "", "", 8.0, "WEEK 8", 56, "TREATMENT", "2013-02-20", 57], [199, "CDISCPILOT01", "QS", "01-705-1282", 6002, "CIBIC", "EXTENT OF CHANGE, IF ANY, SINCE BASELINE", "ADCS-CGIC", "", "NO CHANGE", "", "4", 4, "", "", "", "", "", 10.0, "WEEK 16", 112, "TREATMENT", "2013-04-16", 112], [200, "CDISCPILOT01", "QS", "01-705-1282", 6003, "CIBIC", "EXTENT OF CHANGE, IF ANY, SINCE BASELINE", "ADCS-CGIC", "", "NO CHANGE", "", "4", 4, "", "", "", "", "", 12.0, "WEEK 24", 168, "TREATMENT", "2013-06-11", 168], [201, "CDISCPILOT01", "QS", "01-705-1292", 6001, "CIBIC", "EXTENT OF CHANGE, IF ANY, SINCE BASELINE", "ADCS-CGIC", "", "NO CHANGE", "", "4", 4, "", "", "", "", "", 8.0, "WEEK 8", 56, "TREATMENT", "2014-01-02", 81], [202, "CDISCPILOT01", "QS", "01-705-1292", 6002, "CIBIC", "EXTENT OF CHANGE, IF ANY, SINCE BASELINE", "ADCS-CGIC", "", "NO CHANGE", "", "4", 4, "", "", "", "", "", 10.0, "WEEK 16", 112, "TREATMENT", "2014-03-03", 141], [203, "CDISCPILOT01", "QS", "01-705-1292", 6003, "CIBIC", "EXTENT OF CHANGE, IF ANY, SINCE BASELINE", "ADCS-CGIC", "", "MINIMAL IMPROVEMENT", "", "3", 3, "", "", "", "", "", 12.0, "WEEK 24", 168, "TREATMENT", "2014-04-28", 197], [204, "CDISCPILOT01", "QS", "01-705-1303", 6001, "CIBIC", "EXTENT OF CHANGE, IF ANY, SINCE BASELINE", "ADCS-CGIC", "", "NO CHANGE", "", "4", 4, "", "", "", "", "", 8.0, "WEEK 8", 56, "TREATMENT", "2014-02-10", 57], [205, "CDISCPILOT01", "QS", "01-705-1303", 6002, "CIBIC", "EXTENT OF CHANGE, IF ANY, SINCE BASELINE", "ADCS-CGIC", "", "NO CHANGE", "", "4", 4, "", "", "", "", "", 10.0, "WEEK 16", 112, "TREATMENT", "2014-04-07", 113], [206, "CDISCPILOT01", "QS", "01-705-1310", 6001, "CIBIC", "EXTENT OF CHANGE, IF ANY, SINCE BASELINE", "ADCS-CGIC", "", "NO CHANGE", "", "4", 4, "", "", "", "", "", 8.0, "WEEK 8", 56, "TREATMENT", "2013-12-26", 55], [207, "CDISCPILOT01", "QS", "01-705-1310", 6002, "CIBIC", "EXTENT OF CHANGE, IF ANY, SINCE BASELINE", "ADCS-CGIC", "", "MINIMAL IMPROVEMENT", "", "3", 3, "", "", "", "", "", 9.0, "WEEK 12", 84, "TREATMENT", "2014-01-23", 83], [208, "CDISCPILOT01", "QS", "01-705-1349", 6001, "CIBIC", "EXTENT OF CHANGE, IF ANY, SINCE BASELINE", "ADCS-CGIC", "", "MINIMAL IMPROVEMENT", "", "3", 3, "", "", "", "", "", 8.0, "WEEK 8", 56, "TREATMENT", "2013-05-01", 53], [209, "CDISCPILOT01", "QS", "01-705-1349", 6002, "CIBIC", "EXTENT OF CHANGE, IF ANY, SINCE BASELINE", "ADCS-CGIC", "", "NO CHANGE", "", "4", 4, "", "", "", "", "", 10.0, "WEEK 16", 112, "TREATMENT", "2013-06-25", 108], [210, "CDISCPILOT01", "QS", "01-705-1349", 6003, "CIBIC", "EXTENT OF CHANGE, IF ANY, SINCE BASELINE", "ADCS-CGIC", "", "MINIMAL IMPROVEMENT", "", "3", 3, "", "", "", "", "", 12.0, "WEEK 24", 168, "TREATMENT", "2013-08-25", 169], [211, "CDISCPILOT01", "QS", "01-705-1393", 6001, "CIBIC", "EXTENT OF CHANGE, IF ANY, SINCE BASELINE", "ADCS-CGIC", "", "NO CHANGE", "", "4", 4, "", "", "", "", "", 8.0, "WEEK 8", 56, "TREATMENT", "2012-11-02", 57], [212, "CDISCPILOT01", "QS", "01-705-1393", 6002, "CIBIC", "EXTENT OF CHANGE, IF ANY, SINCE BASELINE", "ADCS-CGIC", "", "NO CHANGE", "", "4", 4, "", "", "", "", "", 10.0, "WEEK 16", 112, "TREATMENT", "2013-01-02", 118], [213, "CDISCPILOT01", "QS", "01-705-1393", 6003, "CIBIC", "EXTENT OF CHANGE, IF ANY, SINCE BASELINE", "ADCS-CGIC", "", "MINIMAL WORSENING", "", "5", 5, "", "", "", "", "", 11.0, "WEEK 20", 140, "TREATMENT", "2013-02-20", 167], [214, "CDISCPILOT01", "QS", "01-705-1431", 6001, "CIBIC", "EXTENT OF CHANGE, IF ANY, SINCE BASELINE", "ADCS-CGIC", "", "NO CHANGE", "", "4", 4, "", "", "", "", "", 8.0, "WEEK 8", 56, "TREATMENT", "2013-08-21", 60], [215, "CDISCPILOT01", "QS", "01-705-1431", 6002, "CIBIC", "EXTENT OF CHANGE, IF ANY, SINCE BASELINE", "ADCS-CGIC", "", "MINIMAL IMPROVEMENT", "", "3", 3, "", "", "", "", "", 10.0, "WEEK 16", 112, "TREATMENT", "2013-10-17", 117], [216, "CDISCPILOT01", "QS", "01-705-1431", 6003, "CIBIC", "EXTENT OF CHANGE, IF ANY, SINCE BASELINE", "ADCS-CGIC", "", "MINIMAL IMPROVEMENT", "", "3", 3, "", "", "", "", "", 12.0, "WEEK 24", 168, "TREATMENT", "2013-12-05", 166], [217, "CDISCPILOT01", "QS", "01-706-1041", 6001, "CIBIC", "EXTENT OF CHANGE, IF ANY, SINCE BASELINE", "ADCS-CGIC", "", "NO CHANGE", "", "4", 4, "", "", "", "", "", 8.0, "WEEK 8", 56, "TREATMENT", "2014-03-04", 64], [218, "CDISCPILOT01", "QS", "01-706-1041", 6002, "CIBIC", "EXTENT OF CHANGE, IF ANY, SINCE BASELINE", "ADCS-CGIC", "", "MINIMAL WORSENING", "", "5", 5, "", "", "", "", "", 10.0, "WEEK 16", 112, "TREATMENT", "2014-05-06", 127], [219, "CDISCPILOT01", "QS", "01-706-1041", 6003, "CIBIC", "EXTENT OF CHANGE, IF ANY, SINCE BASELINE", "ADCS-CGIC", "", "NO CHANGE", "", "4", 4, "", "", "", "", "", 12.0, "WEEK 24", 168, "TREATMENT", "2014-07-15", 197], [220, "CDISCPILOT01", "QS", "01-706-1049", 6001, "CIBIC", "EXTENT OF CHANGE, IF ANY, SINCE BASELINE", "ADCS-CGIC", "", "NO CHANGE", "", "4", 4, "", "", "", "", "", 7.0, "WEEK 6", 42, "TREATMENT", "2013-06-25", 43], [221, "CDISCPILOT01", "QS", "01-706-1384", 6001, "CIBIC", "EXTENT OF CHANGE, IF ANY, SINCE BASELINE", "ADCS-CGIC", "", "NO CHANGE", "", "4", 4, "", "", "", "", "", 4.0, "WEEK 2", 14, "TREATMENT", "2012-09-29", 15], [222, "CDISCPILOT01", "QS", "01-707-1037", 6001, "CIBIC", "EXTENT OF CHANGE, IF ANY, SINCE BASELINE", "ADCS-CGIC", "", "NO CHANGE", "", "4", 4, "", "", "", "", "", 4.0, "WEEK 2", 14, "TREATMENT", "2014-01-08", 20], [223, "CDISCPILOT01", "QS", "01-707-1206", 6001, "CIBIC", "EXTENT OF CHANGE, IF ANY, SINCE BASELINE", "ADCS-CGIC", "", "NO CHANGE", "", "4", 4, "", "", "", "", "", 8.0, "WEEK 8", 56, "TREATMENT", "2013-12-23", 57], [224, "CDISCPILOT01", "QS", "01-707-1206", 6002, "CIBIC", "EXTENT OF CHANGE, IF ANY, SINCE BASELINE", "ADCS-CGIC", "", "MINIMAL WORSENING", "", "5", 5, "", "", "", "", "", 10.0, "WEEK 16", 112, "TREATMENT", "2014-02-16", 112], [225, "CDISCPILOT01", "QS", "01-707-1206", 6003, "CIBIC", "EXTENT OF CHANGE, IF ANY, SINCE BASELINE", "ADCS-CGIC", "", "NO CHANGE", "", "4", 4, "", "", "", "", "", 12.0, "WEEK 24", 168, "TREATMENT", "2014-04-13", 168], [226, "CDISCPILOT01", "QS", "01-708-1019", 6001, "CIBIC", "EXTENT OF CHANGE, IF ANY, SINCE BASELINE", "ADCS-CGIC", "", "MINIMAL WORSENING", "", "5", 5, "", "", "", "", "", 4.0, "WEEK 2", 14, "TREATMENT", "2014-01-23", 35], [227, "CDISCPILOT01", "QS", "01-708-1032", 6001, "CIBIC", "EXTENT OF CHANGE, IF ANY, SINCE BASELINE", "ADCS-CGIC", "", "NO CHANGE", "", "4", 4, "", "", "", "", "", 5.0, "WEEK 4", 28, "TREATMENT", "2013-03-09", 29], [228, "CDISCPILOT01", "QS", "01-708-1084", 6001, "CIBIC", "EXTENT OF CHANGE, IF ANY, SINCE BASELINE", "ADCS-CGIC", "", "MINIMAL IMPROVEMENT", "", "3", 3, "", "", "", "", "", 8.0, "WEEK 8", 56, "TREATMENT", "2013-07-07", 60], [229, "CDISCPILOT01", "QS", "01-708-1084", 6002, "CIBIC", "EXTENT OF CHANGE, IF ANY, SINCE BASELINE", "ADCS-CGIC", "", "MINIMAL IMPROVEMENT", "", "3", 3, "", "", "", "", "", 10.0, "WEEK 16", 112, "TREATMENT", "2013-09-01", 116], [230, "CDISCPILOT01", "QS", "01-708-1084", 6003, "CIBIC", "EXTENT OF CHANGE, IF ANY, SINCE BASELINE", "ADCS-CGIC", "", "NO CHANGE", "", "4", 4, "", "", "", "", "", 12.0, "WEEK 24", 168, "TREATMENT", "2013-10-28", 173], [231, "CDISCPILOT01", "QS", "01-708-1087", 6001, "CIBIC", "EXTENT OF CHANGE, IF ANY, SINCE BASELINE", "ADCS-CGIC", "", "MINIMAL IMPROVEMENT", "", "3", 3, "", "", "", "", "", 8.0, "WEEK 8", 56, "TREATMENT", "2012-12-22", 62], [232, "CDISCPILOT01", "QS", "01-708-1087", 6002, "CIBIC", "EXTENT OF CHANGE, IF ANY, SINCE BASELINE", "ADCS-CGIC", "", "MINIMAL WORSENING", "", "5", 5, "", "", "", "", "", 10.0, "WEEK 16", 112, "TREATMENT", "2013-02-16", 118], [233, "CDISCPILOT01", "QS", "01-708-1087", 6003, "CIBIC", "EXTENT OF CHANGE, IF ANY, SINCE BASELINE", "ADCS-CGIC", "", "NO CHANGE", "", "4", 4, "", "", "", "", "", 12.0, "WEEK 24", 168, "TREATMENT", "2013-04-10", 171], [234, "CDISCPILOT01", "QS", "01-708-1158", 6001, "CIBIC", "EXTENT OF CHANGE, IF ANY, SINCE BASELINE", "ADCS-CGIC", "", "MINIMAL WORSENING", "", "5", 5, "", "", "", "", "", 7.0, "WEEK 6", 42, "TREATMENT", "2014-03-22", 43], [235, "CDISCPILOT01", "QS", "01-708-1171", 6001, "CIBIC", "EXTENT OF CHANGE, IF ANY, SINCE BASELINE", "ADCS-CGIC", "", "NO CHANGE", "", "4", 4, "", "", "", "", "", 8.0, "WEEK 8", 56, "TREATMENT", "2013-01-28", 54], [236, "CDISCPILOT01", "QS", "01-708-1171", 6002, "CIBIC", "EXTENT OF CHANGE, IF ANY, SINCE BASELINE", "ADCS-CGIC", "", "MINIMAL WORSENING", "", "5", 5, "", "", "", "", "", 10.0, "WEEK 16", 112, "TREATMENT", "2013-03-25", 110], [237, "CDISCPILOT01", "QS", "01-708-1171", 6003, "CIBIC", "EXTENT OF CHANGE, IF ANY, SINCE BASELINE", "ADCS-CGIC", "", "MINIMAL WORSENING", "", "5", 5, "", "", "", "", "", 12.0, "WEEK 24", 168, "TREATMENT", "2013-05-20", 166], [238, "CDISCPILOT01", "QS", "01-708-1178", 6001, "CIBIC", "EXTENT OF CHANGE, IF ANY, SINCE BASELINE", "ADCS-CGIC", "", "MINIMAL WORSENING", "", "5", 5, "", "", "", "", "", 8.0, "WEEK 8", 56, "TREATMENT", "2014-03-09", 71], [239, "CDISCPILOT01", "QS", "01-708-1178", 6002, "CIBIC", "EXTENT OF CHANGE, IF ANY, SINCE BASELINE", "ADCS-CGIC", "", "MINIMAL IMPROVEMENT", "", "3", 3, "", "", "", "", "", 9.0, "WEEK 12", 84, "TREATMENT", "2014-04-06", 99], [240, "CDISCPILOT01", "QS", "01-708-1213", 6001, "CIBIC", "EXTENT OF CHANGE, IF ANY, SINCE BASELINE", "ADCS-CGIC", "", "NO CHANGE", "", "4", 4, "", "", "", "", "", 5.0, "WEEK 4", 28, "TREATMENT", "2013-02-26", 18], [241, "CDISCPILOT01", "QS", "01-708-1216", 6001, "CIBIC", "EXTENT OF CHANGE, IF ANY, SINCE BASELINE", "ADCS-CGIC", "", "MINIMAL IMPROVEMENT", "", "3", 3, "", "", "", "", "", 7.0, "WEEK 6", 42, "TREATMENT", "2012-12-06", 44], [242, "CDISCPILOT01", "QS", "01-708-1253", 6001, "CIBIC", "EXTENT OF CHANGE, IF ANY, SINCE BASELINE", "ADCS-CGIC", "", "MINIMAL IMPROVEMENT", "", "3", 3, "", "", "", "", "", 8.0, "WEEK 8", 56, "TREATMENT", "2013-07-09", 64], [243, "CDISCPILOT01", "QS", "01-708-1253", 6002, "CIBIC", "EXTENT OF CHANGE, IF ANY, SINCE BASELINE", "ADCS-CGIC", "", "NO CHANGE", "", "4", 4, "", "", "", "", "", 10.0, "WEEK 16", 112, "TREATMENT", "2013-09-02", 119], [244, "CDISCPILOT01", "QS", "01-708-1253", 6003, "CIBIC", "EXTENT OF CHANGE, IF ANY, SINCE BASELINE", "ADCS-CGIC", "", "NO CHANGE", "", "4", 4, "", "", "", "", "", 12.0, "WEEK 24", 168, "TREATMENT", "2013-10-27", 174], [245, "CDISCPILOT01", "QS", "01-708-1272", 6001, "CIBIC", "EXTENT OF CHANGE, IF ANY, SINCE BASELINE", "ADCS-CGIC", "", "MINIMAL IMPROVEMENT", "", "3", 3, "", "", "", "", "", 8.0, "WEEK 8", 56, "TREATMENT", "2013-04-04", 58], [246, "CDISCPILOT01", "QS", "01-708-1286", 6001, "CIBIC", "EXTENT OF CHANGE, IF ANY, SINCE BASELINE", "ADCS-CGIC", "", "MINIMAL IMPROVEMENT", "", "3", 3, "", "", "", "", "", 8.0, "WEEK 8", 56, "TREATMENT", "2013-11-03", 55], [247, "CDISCPILOT01", "QS", "01-708-1286", 6002, "CIBIC", "EXTENT OF CHANGE, IF ANY, SINCE BASELINE", "ADCS-CGIC", "", "NO CHANGE", "", "4", 4, "", "", "", "", "", 10.0, "WEEK 16", 112, "TREATMENT", "2013-12-29", 111], [248, "CDISCPILOT01", "QS", "01-708-1286", 6003, "CIBIC", "EXTENT OF CHANGE, IF ANY, SINCE BASELINE", "ADCS-CGIC", "", "MINIMAL IMPROVEMENT", "", "3", 3, "", "", "", "", "", 12.0, "WEEK 24", 168, "TREATMENT", "2014-02-23", 167], [249, "CDISCPILOT01", "QS", "01-708-1296", 6001, "CIBIC", "EXTENT OF CHANGE, IF ANY, SINCE BASELINE", "ADCS-CGIC", "", "MINIMAL WORSENING", "", "5", 5, "", "", "", "", "", 8.0, "WEEK 8", 56, "TREATMENT", "2013-08-07", 55], [250, "CDISCPILOT01", "QS", "01-708-1296", 6002, "CIBIC", "EXTENT OF CHANGE, IF ANY, SINCE BASELINE", "ADCS-CGIC", "", "MINIMAL WORSENING", "", "5", 5, "", "", "", "", "", 10.0, "WEEK 16", 112, "TREATMENT", "2013-10-02", 111], [251, "CDISCPILOT01", "QS", "01-708-1296", 6003, "CIBIC", "EXTENT OF CHANGE, IF ANY, SINCE BASELINE", "ADCS-CGIC", "", "MINIMAL IMPROVEMENT", "", "3", 3, "", "", "", "", "", 12.0, "WEEK 24", 168, "TREATMENT", "2013-11-27", 167], [252, "CDISCPILOT01", "QS", "01-708-1297", 6001, "CIBIC", "EXTENT OF CHANGE, IF ANY, SINCE BASELINE", "ADCS-CGIC", "", "MINIMAL WORSENING", "", "5", 5, "", "", "", "", "", 8.0, "WEEK 8", 56, "TREATMENT", "2013-03-19", 54], [253, "CDISCPILOT01", "QS", "01-708-1297", 6002, "CIBIC", "EXTENT OF CHANGE, IF ANY, SINCE BASELINE", "ADCS-CGIC", "", "MINIMAL WORSENING", "", "5", 5, "", "", "", "", "", 10.0, "WEEK 16", 112, "TREATMENT", "2013-05-08", 104], [254, "CDISCPILOT01", "QS", "01-708-1316", 6001, "CIBIC", "EXTENT OF CHANGE, IF ANY, SINCE BASELINE", "ADCS-CGIC", "", "MINIMAL IMPROVEMENT", "", "3", 3, "", "", "", "", "", 8.0, "WEEK 8", 56, "TREATMENT", "2013-10-25", 64], [255, "CDISCPILOT01", "QS", "01-708-1316", 6002, "CIBIC", "EXTENT OF CHANGE, IF ANY, SINCE BASELINE", "ADCS-CGIC", "", "NO CHANGE", "", "4", 4, "", "", "", "", "", 10.0, "WEEK 16", 112, "TREATMENT", "2013-12-21", 121], [256, "CDISCPILOT01", "QS", "01-708-1316", 6003, "CIBIC", "EXTENT OF CHANGE, IF ANY, SINCE BASELINE", "ADCS-CGIC", "", "NO CHANGE", "", "4", 4, "", "", "", "", "", 12.0, "WEEK 24", 168, "TREATMENT", "2014-02-15", 177], [257, "CDISCPILOT01", "QS", "01-708-1336", 6001, "CIBIC", "EXTENT OF CHANGE, IF ANY, SINCE BASELINE", "ADCS-CGIC", "", "MINIMAL WORSENING", "", "5", 5, "", "", "", "", "", 8.0, "WEEK 8", 56, "TREATMENT", "2013-01-29", 54], [258, "CDISCPILOT01", "QS", "01-708-1336", 6002, "CIBIC", "EXTENT OF CHANGE, IF ANY, SINCE BASELINE", "ADCS-CGIC", "", "MINIMAL WORSENING", "", "5", 5, "", "", "", "", "", 10.0, "WEEK 16", 112, "TREATMENT", "2013-03-27", 111], [259, "CDISCPILOT01", "QS", "01-708-1336", 6003, "CIBIC", "EXTENT OF CHANGE, IF ANY, SINCE BASELINE", "ADCS-CGIC", "", "MODERATE WORSENING", "", "6", 6, "", "", "", "", "", 12.0, "WEEK 24", 168, "TREATMENT", "2013-05-22", 167], [260, "CDISCPILOT01", "QS", "01-708-1342", 6001, "CIBIC", "EXTENT OF CHANGE, IF ANY, SINCE BASELINE", "ADCS-CGIC", "", "MINIMAL IMPROVEMENT", "", "3", 3, "", "", "", "", "", 8.0, "WEEK 8", 56, "TREATMENT", "2013-02-23", 57], [261, "CDISCPILOT01", "QS", "01-708-1342", 6002, "CIBIC", "EXTENT OF CHANGE, IF ANY, SINCE BASELINE", "ADCS-CGIC", "", "NO CHANGE", "", "4", 4, "", "", "", "", "", 10.0, "WEEK 16", 112, "TREATMENT", "2013-04-20", 113], [262, "CDISCPILOT01", "QS", "01-708-1342", 6003, "CIBIC", "EXTENT OF CHANGE, IF ANY, SINCE BASELINE", "ADCS-CGIC", "", "MINIMAL WORSENING", "", "5", 5, "", "", "", "", "", 12.0, "WEEK 24", 168, "TREATMENT", "2013-06-15", 169], [263, "CDISCPILOT01", "QS", "01-708-1347", 6001, "CIBIC", "EXTENT OF CHANGE, IF ANY, SINCE BASELINE", "ADCS-CGIC", "", "MINIMAL IMPROVEMENT", "", "3", 3, "", "", "", "", "", 8.0, "WEEK 8", 56, "TREATMENT", "2013-06-13", 55], [264, "CDISCPILOT01", "QS", "01-708-1347", 6002, "CIBIC", "EXTENT OF CHANGE, IF ANY, SINCE BASELINE", "ADCS-CGIC", "", "NO CHANGE", "", "4", 4, "", "", "", "", "", 9.0, "WEEK 12", 84, "TREATMENT", "2013-06-18", 60], [265, "CDISCPILOT01", "QS", "01-708-1348", 6001, "CIBIC", "EXTENT OF CHANGE, IF ANY, SINCE BASELINE", "ADCS-CGIC", "", "MINIMAL IMPROVEMENT", "", "3", 3, "", "", "", "", "", 8.0, "WEEK 8", 56, "TREATMENT", "2013-10-06", 63], [266, "CDISCPILOT01", "QS", "01-708-1348", 6002, "CIBIC", "EXTENT OF CHANGE, IF ANY, SINCE BASELINE", "ADCS-CGIC", "", "MINIMAL WORSENING", "", "5", 5, "", "", "", "", "", 10.0, "WEEK 16", 112, "TREATMENT", "2013-12-01", 119], [267, "CDISCPILOT01", "QS", "01-708-1348", 6003, "CIBIC", "EXTENT OF CHANGE, IF ANY, SINCE BASELINE", "ADCS-CGIC", "", "MINIMAL IMPROVEMENT", "", "3", 3, "", "", "", "", "", 12.0, "WEEK 24", 168, "TREATMENT", "2014-02-03", 183], [268, "CDISCPILOT01", "QS", "01-708-1353", 6001, "CIBIC", "EXTENT OF CHANGE, IF ANY, SINCE BASELINE", "ADCS-CGIC", "", "MINIMAL WORSENING", "", "5", 5, "", "", "", "", "", 8.0, "WEEK 8", 56, "TREATMENT", "2013-09-10", 69], [269, "CDISCPILOT01", "QS", "01-708-1378", 6001, "CIBIC", "EXTENT OF CHANGE, IF ANY, SINCE BASELINE", "ADCS-CGIC", "", "MINIMAL IMPROVEMENT", "", "3", 3, "", "", "", "", "", 8.0, "WEEK 8", 56, "TREATMENT", "2013-11-05", 64], [270, "CDISCPILOT01", "QS", "01-708-1378", 6002, "CIBIC", "EXTENT OF CHANGE, IF ANY, SINCE BASELINE", "ADCS-CGIC", "", "MINIMAL IMPROVEMENT", "", "3", 3, "", "", "", "", "", 10.0, "WEEK 16", 112, "TREATMENT", "2014-01-12", 132], [271, "CDISCPILOT01", "QS", "01-708-1378", 6003, "CIBIC", "EXTENT OF CHANGE, IF ANY, SINCE BASELINE", "ADCS-CGIC", "", "MINIMAL IMPROVEMENT", "", "3", 3, "", "", "", "", "", 11.0, "WEEK 20", 140, "TREATMENT", "2014-01-28", 148], [272, "CDISCPILOT01", "QS", "01-708-1406", 6001, "CIBIC", "EXTENT OF CHANGE, IF ANY, SINCE BASELINE", "ADCS-CGIC", "", "MINIMAL IMPROVEMENT", "", "3", 3, "", "", "", "", "", 8.0, "WEEK 8", 56, "TREATMENT", "2014-02-24", 61], [273, "CDISCPILOT01", "QS", "01-708-1406", 6002, "CIBIC", "EXTENT OF CHANGE, IF ANY, SINCE BASELINE", "ADCS-CGIC", "", "MINIMAL WORSENING", "", "5", 5, "", "", "", "", "", 10.0, "WEEK 16", 112, "TREATMENT", "2014-04-16", 112], [274, "CDISCPILOT01", "QS", "01-708-1406", 6003, "CIBIC", "EXTENT OF CHANGE, IF ANY, SINCE BASELINE", "ADCS-CGIC", "", "MINIMAL WORSENING", "", "5", 5, "", "", "", "", "", 12.0, "WEEK 24", 168, "TREATMENT", "2014-06-16", 173], [275, "CDISCPILOT01", "QS", "01-708-1428", 6001, "CIBIC", "EXTENT OF CHANGE, IF ANY, SINCE BASELINE", "ADCS-CGIC", "", "MINIMAL WORSENING", "", "5", 5, "", "", "", "", "", 8.0, "WEEK 8", 56, "TREATMENT", "2014-01-31", 84], [276, "CDISCPILOT01", "QS", "01-709-1001", 6001, "CIBIC", "EXTENT OF CHANGE, IF ANY, SINCE BASELINE", "ADCS-CGIC", "", "MINIMAL IMPROVEMENT", "", "3", 3, "", "", "", "", "", 8.0, "WEEK 8", 56, "TREATMENT", "2013-12-03", 57], [277, "CDISCPILOT01", "QS", "01-709-1001", 6002, "CIBIC", "EXTENT OF CHANGE, IF ANY, SINCE BASELINE", "ADCS-CGIC", "", "MINIMAL WORSENING", "", "5", 5, "", "", "", "", "", 10.0, "WEEK 16", 112, "TREATMENT", "2014-01-28", 113], [278, "CDISCPILOT01", "QS", "01-709-1001", 6003, "CIBIC", "EXTENT OF CHANGE, IF ANY, SINCE BASELINE", "ADCS-CGIC", "", "MINIMAL WORSENING", "", "5", 5, "", "", "", "", "", 12.0, "WEEK 24", 168, "TREATMENT", "2014-03-17", 161], [279, "CDISCPILOT01", "QS", "01-709-1020", 6001, "CIBIC", "EXTENT OF CHANGE, IF ANY, SINCE BASELINE", "ADCS-CGIC", "", "MODERATE IMPROVEMENT", "", "2", 2, "", "", "", "", "", 8.0, "WEEK 8", 56, "TREATMENT", "2013-01-26", 57], [280, "CDISCPILOT01", "QS", "01-709-1020", 6002, "CIBIC", "EXTENT OF CHANGE, IF ANY, SINCE BASELINE", "ADCS-CGIC", "", "MINIMAL IMPROVEMENT", "", "3", 3, "", "", "", "", "", 10.0, "WEEK 16", 112, "TREATMENT", "2013-03-23", 113], [281, "CDISCPILOT01", "QS", "01-709-1020", 6003, "CIBIC", "EXTENT OF CHANGE, IF ANY, SINCE BASELINE", "ADCS-CGIC", "", "NO CHANGE", "", "4", 4, "", "", "", "", "", 12.0, "WEEK 24", 168, "TREATMENT", "2013-05-18", 169], [282, "CDISCPILOT01", "QS", "01-709-1029", 6001, "CIBIC", "EXTENT OF CHANGE, IF ANY, SINCE BASELINE", "ADCS-CGIC", "", "MINIMAL WORSENING", "", "5", 5, "", "", "", "", "", 8.0, "WEEK 8", 56, "TREATMENT", "2013-02-19", 57], [283, "CDISCPILOT01", "QS", "01-709-1029", 6002, "CIBIC", "EXTENT OF CHANGE, IF ANY, SINCE BASELINE", "ADCS-CGIC", "", "NO CHANGE", "", "4", 4, "", "", "", "", "", 10.0, "WEEK 16", 112, "TREATMENT", "2013-04-16", 113], [284, "CDISCPILOT01", "QS", "01-709-1029", 6003, "CIBIC", "EXTENT OF CHANGE, IF ANY, SINCE BASELINE", "ADCS-CGIC", "", "MINIMAL WORSENING", "", "5", 5, "", "", "", "", "", 12.0, "WEEK 24", 168, "TREATMENT", "2013-06-12", 170], [285, "CDISCPILOT01", "QS", "01-709-1081", 6001, "CIBIC", "EXTENT OF CHANGE, IF ANY, SINCE BASELINE", "ADCS-CGIC", "", "MINIMAL IMPROVEMENT", "", "3", 3, "", "", "", "", "", 8.0, "WEEK 8", 56, "TREATMENT", "2014-03-15", 57], [286, "CDISCPILOT01", "QS", "01-709-1081", 6002, "CIBIC", "EXTENT OF CHANGE, IF ANY, SINCE BASELINE", "ADCS-CGIC", "", "MINIMAL IMPROVEMENT", "", "3", 3, "", "", "", "", "", 10.0, "WEEK 16", 112, "TREATMENT", "2014-05-10", 113], [287, "CDISCPILOT01", "QS", "01-709-1088", 6001, "CIBIC", "EXTENT OF CHANGE, IF ANY, SINCE BASELINE", "ADCS-CGIC", "", "MINIMAL IMPROVEMENT", "", "3", 3, "", "", "", "", "", 8.0, "WEEK 8", 56, "TREATMENT", "2014-06-01", 51], [288, "CDISCPILOT01", "QS", "01-709-1088", 6002, "CIBIC", "EXTENT OF CHANGE, IF ANY, SINCE BASELINE", "ADCS-CGIC", "", "MINIMAL IMPROVEMENT", "", "3", 3, "", "", "", "", "", 10.0, "WEEK 16", 112, "TREATMENT", "2014-08-02", 113], [289, "CDISCPILOT01", "QS", "01-709-1088", 6003, "CIBIC", "EXTENT OF CHANGE, IF ANY, SINCE BASELINE", "ADCS-CGIC", "", "MINIMAL IMPROVEMENT", "", "3", 3, "", "", "", "", "", 12.0, "WEEK 24", 168, "TREATMENT", "2014-09-27", 169], [290, "CDISCPILOT01", "QS", "01-709-1099", 6001, "CIBIC", "EXTENT OF CHANGE, IF ANY, SINCE BASELINE", "ADCS-CGIC", "", "MINIMAL IMPROVEMENT", "", "3", 3, "", "", "", "", "", 8.0, "WEEK 8", 56, "TREATMENT", "2013-12-26", 63], [291, "CDISCPILOT01", "QS", "01-709-1099", 6002, "CIBIC", "EXTENT OF CHANGE, IF ANY, SINCE BASELINE", "ADCS-CGIC", "", "MINIMAL IMPROVEMENT", "", "3", 3, "", "", "", "", "", 10.0, "WEEK 16", 112, "TREATMENT", "2014-02-14", 113], [292, "CDISCPILOT01", "QS", "01-709-1099", 6003, "CIBIC", "EXTENT OF CHANGE, IF ANY, SINCE BASELINE", "ADCS-CGIC", "", "MINIMAL WORSENING", "", "5", 5, "", "", "", "", "", 12.0, "WEEK 24", 168, "TREATMENT", "2014-04-11", 169], [293, "CDISCPILOT01", "QS", "01-709-1102", 6001, "CIBIC", "EXTENT OF CHANGE, IF ANY, SINCE BASELINE", "ADCS-CGIC", "", "MINIMAL WORSENING", "", "5", 5, "", "", "", "", "", 8.0, "WEEK 8", 56, "TREATMENT", "2013-03-12", 57], [294, "CDISCPILOT01", "QS", "01-709-1102", 6002, "CIBIC", "EXTENT OF CHANGE, IF ANY, SINCE BASELINE", "ADCS-CGIC", "", "MINIMAL WORSENING", "", "5", 5, "", "", "", "", "", 9.0, "WEEK 12", 84, "TREATMENT", "2013-03-31", 76], [295, "CDISCPILOT01", "QS", "01-709-1168", 6001, "CIBIC", "EXTENT OF CHANGE, IF ANY, SINCE BASELINE", "ADCS-CGIC", "", "MINIMAL WORSENING", "", "5", 5, "", "", "", "", "", 8.0, "WEEK 8", 56, "TREATMENT", "2013-09-27", 57], [296, "CDISCPILOT01", "QS", "01-709-1217", 6001, "CIBIC", "EXTENT OF CHANGE, IF ANY, SINCE BASELINE", "ADCS-CGIC", "", "MODERATE WORSENING", "", "6", 6, "", "", "", "", "", 8.0, "WEEK 8", 56, "TREATMENT", "2013-04-29", 57], [297, "CDISCPILOT01", "QS", "01-709-1217", 6002, "CIBIC", "EXTENT OF CHANGE, IF ANY, SINCE BASELINE", "ADCS-CGIC", "", "MINIMAL WORSENING", "", "5", 5, "", "", "", "", "", 10.0, "WEEK 16", 112, "TREATMENT", "2013-06-25", 114], [298, "CDISCPILOT01", "QS", "01-709-1238", 6001, "CIBIC", "EXTENT OF CHANGE, IF ANY, SINCE BASELINE", "ADCS-CGIC", "", "NO CHANGE", "", "4", 4, "", "", "", "", "", 8.0, "WEEK 8", 56, "TREATMENT", "2013-07-02", 49], [299, "CDISCPILOT01", "QS", "01-709-1238", 6002, "CIBIC", "EXTENT OF CHANGE, IF ANY, SINCE BASELINE", "ADCS-CGIC", "", "NO CHANGE", "", "4", 4, "", "", "", "", "", 9.0, "WEEK 12", 84, "TREATMENT", "2013-08-07", 85], [300, "CDISCPILOT01", "QS", "01-709-1259", 6001, "CIBIC", "EXTENT OF CHANGE, IF ANY, SINCE BASELINE", "ADCS-CGIC", "", "MINIMAL WORSENING", "", "5", 5, "", "", "", "", "", 8.0, "WEEK 8", 56, "TREATMENT", "2013-03-23", 57], [301, "CDISCPILOT01", "QS", "01-709-1259", 6002, "CIBIC", "EXTENT OF CHANGE, IF ANY, SINCE BASELINE", "ADCS-CGIC", "", "MINIMAL WORSENING", "", "5", 5, "", "", "", "", "", 10.0, "WEEK 16", 112, "TREATMENT", "2013-05-11", 106], [302, "CDISCPILOT01", "QS", "01-709-1259", 6003, "CIBIC", "EXTENT OF CHANGE, IF ANY, SINCE BASELINE", "ADCS-CGIC", "", "MINIMAL WORSENING", "", "5", 5, "", "", "", "", "", 11.0, "WEEK 20", 140, "TREATMENT", "2013-06-13", 139], [303, "CDISCPILOT01", "QS", "01-709-1285", 6001, "CIBIC", "EXTENT OF CHANGE, IF ANY, SINCE BASELINE", "ADCS-CGIC", "", "MINIMAL IMPROVEMENT", "", "3", 3, "", "", "", "", "", 8.0, "WEEK 8", 56, "TREATMENT", "2013-05-19", 57], [304, "CDISCPILOT01", "QS", "01-709-1285", 6002, "CIBIC", "EXTENT OF CHANGE, IF ANY, SINCE BASELINE", "ADCS-CGIC", "", "MINIMAL IMPROVEMENT", "", "3", 3, "", "", "", "", "", 9.0, "WEEK 12", 84, "TREATMENT", "2013-05-31", 69], [305, "CDISCPILOT01", "QS", "01-709-1301", 6001, "CIBIC", "EXTENT OF CHANGE, IF ANY, SINCE BASELINE", "ADCS-CGIC", "", "NO CHANGE", "", "4", 4, "", "", "", "", "", 8.0, "WEEK 8", 56, "TREATMENT", "2013-09-13", 57], [306, "CDISCPILOT01", "QS", "01-709-1301", 6002, "CIBIC", "EXTENT OF CHANGE, IF ANY, SINCE BASELINE", "ADCS-CGIC", "", "NO CHANGE", "", "4", 4, "", "", "", "", "", 10.0, "WEEK 16", 112, "TREATMENT", "2013-11-08", 113], [307, "CDISCPILOT01", "QS", "01-709-1301", 6003, "CIBIC", "EXTENT OF CHANGE, IF ANY, SINCE BASELINE", "ADCS-CGIC", "", "MINIMAL WORSENING", "", "5", 5, "", "", "", "", "", 12.0, "WEEK 24", 168, "TREATMENT", "2014-01-04", 170], [308, "CDISCPILOT01", "QS", "01-709-1306", 6001, "CIBIC", "EXTENT OF CHANGE, IF ANY, SINCE BASELINE", "ADCS-CGIC", "", "NO CHANGE", "", "4", 4, "", "", "", "", "", 8.0, "WEEK 8", 56, "TREATMENT", "2014-04-02", 59], [309, "CDISCPILOT01", "QS", "01-709-1306", 6002, "CIBIC", "EXTENT OF CHANGE, IF ANY, SINCE BASELINE", "ADCS-CGIC", "", "MINIMAL WORSENING", "", "5", 5, "", "", "", "", "", 10.0, "WEEK 16", 112, "TREATMENT", "2014-05-28", 115], [310, "CDISCPILOT01", "QS", "01-709-1306", 6003, "CIBIC", "EXTENT OF CHANGE, IF ANY, SINCE BASELINE", "ADCS-CGIC", "", "MINIMAL WORSENING", "", "5", 5, "", "", "", "", "", 11.0, "WEEK 20", 140, "TREATMENT", "2014-06-25", 143], [311, "CDISCPILOT01", "QS", "01-709-1309", 6001, "CIBIC", "EXTENT OF CHANGE, IF ANY, SINCE BASELINE", "ADCS-CGIC", "", "MINIMAL IMPROVEMENT", "", "3", 3, "", "", "", "", "", 8.0, "WEEK 8", 56, "TREATMENT", "2013-08-15", 58], [312, "CDISCPILOT01", "QS", "01-709-1309", 6002, "CIBIC", "EXTENT OF CHANGE, IF ANY, SINCE BASELINE", "ADCS-CGIC", "", "MINIMAL IMPROVEMENT", "", "3", 3, "", "", "", "", "", 10.0, "WEEK 16", 112, "TREATMENT", "2013-10-16", 120], [313, "CDISCPILOT01", "QS", "01-709-1309", 6003, "CIBIC", "EXTENT OF CHANGE, IF ANY, SINCE BASELINE", "ADCS-CGIC", "", "NO CHANGE", "", "4", 4, "", "", "", "", "", 12.0, "WEEK 24", 168, "TREATMENT", "2013-12-05", 170], [314, "CDISCPILOT01", "QS", "01-709-1312", 6001, "CIBIC", "EXTENT OF CHANGE, IF ANY, SINCE BASELINE", "ADCS-CGIC", "", "NO CHANGE", "", "4", 4, "", "", "", "", "", 8.0, "WEEK 8", 56, "TREATMENT", "2014-06-13", 55], [315, "CDISCPILOT01", "QS", "01-709-1312", 6002, "CIBIC", "EXTENT OF CHANGE, IF ANY, SINCE BASELINE", "ADCS-CGIC", "", "NO CHANGE", "", "4", 4, "", "", "", "", "", 10.0, "WEEK 16", 112, "TREATMENT", "2014-08-10", 113], [316, "CDISCPILOT01", "QS", "01-709-1312", 6003, "CIBIC", "EXTENT OF CHANGE, IF ANY, SINCE BASELINE", "ADCS-CGIC", "", "MINIMAL WORSENING", "", "5", 5, "", "", "", "", "", 12.0, "WEEK 24", 168, "TREATMENT", "2014-10-05", 169], [317, "CDISCPILOT01", "QS", "01-709-1326", 6001, "CIBIC", "EXTENT OF CHANGE, IF ANY, SINCE BASELINE", "ADCS-CGIC", "", "NO CHANGE", "", "4", 4, "", "", "", "", "", 8.0, "WEEK 8", 56, "TREATMENT", "2013-06-01", 58], [318, "CDISCPILOT01", "QS", "01-709-1326", 6002, "CIBIC", "EXTENT OF CHANGE, IF ANY, SINCE BASELINE", "ADCS-CGIC", "", "NO CHANGE", "", "4", 4, "", "", "", "", "", 10.0, "WEEK 16", 112, "TREATMENT", "2013-07-26", 113], [319, "CDISCPILOT01", "QS", "01-709-1326", 6003, "CIBIC", "EXTENT OF CHANGE, IF ANY, SINCE BASELINE", "ADCS-CGIC", "", "MINIMAL IMPROVEMENT", "", "3", 3, "", "", "", "", "", 12.0, "WEEK 24", 168, "TREATMENT", "2013-09-20", 169], [320, "CDISCPILOT01", "QS", "01-709-1329", 6001, "CIBIC", "EXTENT OF CHANGE, IF ANY, SINCE BASELINE", "ADCS-CGIC", "", "MINIMAL WORSENING", "", "5", 5, "", "", "", "", "", 4.0, "WEEK 2", 14, "TREATMENT", "2013-08-29", 15], [321, "CDISCPILOT01", "QS", "01-709-1339", 6001, "CIBIC", "EXTENT OF CHANGE, IF ANY, SINCE BASELINE", "ADCS-CGIC", "", "NO CHANGE", "", "4", 4, "", "", "", "", "", 8.0, "WEEK 8", 56, "TREATMENT", "2013-02-19", 59], [322, "CDISCPILOT01", "QS", "01-709-1339", 6002, "CIBIC", "EXTENT OF CHANGE, IF ANY, SINCE BASELINE", "ADCS-CGIC", "", "MINIMAL IMPROVEMENT", "", "3", 3, "", "", "", "", "", 10.0, "WEEK 16", 112, "TREATMENT", "2013-04-14", 113], [323, "CDISCPILOT01", "QS", "01-709-1339", 6003, "CIBIC", "EXTENT OF CHANGE, IF ANY, SINCE BASELINE", "ADCS-CGIC", "", "NO CHANGE", "", "4", 4, "", "", "", "", "", 12.0, "WEEK 24", 168, "TREATMENT", "2013-06-08", 168], [324, "CDISCPILOT01", "QS", "01-709-1424", 6001, "CIBIC", "EXTENT OF CHANGE, IF ANY, SINCE BASELINE", "ADCS-CGIC", "", "NO CHANGE", "", "4", 4, "", "", "", "", "", 4.0, "WEEK 2", 14, "TREATMENT", "2013-03-08", 6], [325, "CDISCPILOT01", "QS", "01-710-1002", 6001, "CIBIC", "EXTENT OF CHANGE, IF ANY, SINCE BASELINE", "ADCS-CGIC", "", "MINIMAL WORSENING", "", "5", 5, "", "", "", "", "", 4.0, "WEEK 2", 14, "TREATMENT", "2014-01-18", 5], [326, "CDISCPILOT01", "QS", "01-710-1006", 6001, "CIBIC", "EXTENT OF CHANGE, IF ANY, SINCE BASELINE", "ADCS-CGIC", "", "NO CHANGE", "", "4", 4, "", "", "", "", "", 8.0, "WEEK 8", 56, "TREATMENT", "2013-04-06", 56], [327, "CDISCPILOT01", "QS", "01-710-1006", 6002, "CIBIC", "EXTENT OF CHANGE, IF ANY, SINCE BASELINE", "ADCS-CGIC", "", "MINIMAL IMPROVEMENT", "", "3", 3, "", "", "", "", "", 10.0, "WEEK 16", 112, "TREATMENT", "2013-06-01", 112], [328, "CDISCPILOT01", "QS", "01-710-1006", 6003, "CIBIC", "EXTENT OF CHANGE, IF ANY, SINCE BASELINE", "ADCS-CGIC", "", "NO CHANGE", "", "4", 4, "", "", "", "", "", 12.0, "WEEK 24", 168, "TREATMENT", "2013-07-27", 168], [329, "CDISCPILOT01", "QS", "01-710-1027", 6001, "CIBIC", "EXTENT OF CHANGE, IF ANY, SINCE BASELINE", "ADCS-CGIC", "", "NO CHANGE", "", "4", 4, "", "", "", "", "", 8.0, "WEEK 8", 56, "TREATMENT", "2014-04-24", 56], [330, "CDISCPILOT01", "QS", "01-710-1027", 6002, "CIBIC", "EXTENT OF CHANGE, IF ANY, SINCE BASELINE", "ADCS-CGIC", "", "MINIMAL WORSENING", "", "5", 5, "", "", "", "", "", 10.0, "WEEK 16", 112, "TREATMENT", "2014-06-20", 113], [331, "CDISCPILOT01", "QS", "01-710-1027", 6003, "CIBIC", "EXTENT OF CHANGE, IF ANY, SINCE BASELINE", "ADCS-CGIC", "", "MINIMAL WORSENING", "", "5", 5, "", "", "", "", "", 12.0, "WEEK 24", 168, "TREATMENT", "2014-08-19", 173], [332, "CDISCPILOT01", "QS", "01-710-1045", 6001, "CIBIC", "EXTENT OF CHANGE, IF ANY, SINCE BASELINE", "ADCS-CGIC", "", "MINIMAL WORSENING", "", "5", 5, "", "", "", "", "", 8.0, "WEEK 8", 56, "TREATMENT", "2013-07-29", 57], [333, "CDISCPILOT01", "QS", "01-710-1045", 6002, "CIBIC", "EXTENT OF CHANGE, IF ANY, SINCE BASELINE", "ADCS-CGIC", "", "MINIMAL WORSENING", "", "5", 5, "", "", "", "", "", 9.0, "WEEK 12", 84, "TREATMENT", "2013-08-17", 76], [334, "CDISCPILOT01", "QS", "01-710-1053", 6001, "CIBIC", "EXTENT OF CHANGE, IF ANY, SINCE BASELINE", "ADCS-CGIC", "", "NO CHANGE", "", "4", 4, "", "", "", "", "", 8.0, "WEEK 8", 56, "TREATMENT", "2013-02-15", 52], [335, "CDISCPILOT01", "QS", "01-710-1060", 6001, "CIBIC", "EXTENT OF CHANGE, IF ANY, SINCE BASELINE", "ADCS-CGIC", "", "NO CHANGE", "", "4", 4, "", "", "", "", "", 8.0, "WEEK 8", 56, "TREATMENT", "2013-02-26", 57], [336, "CDISCPILOT01", "QS", "01-710-1060", 6002, "CIBIC", "EXTENT OF CHANGE, IF ANY, SINCE BASELINE", "ADCS-CGIC", "", "MINIMAL IMPROVEMENT", "", "3", 3, "", "", "", "", "", 10.0, "WEEK 16", 112, "TREATMENT", "2013-04-23", 113], [337, "CDISCPILOT01", "QS", "01-710-1060", 6003, "CIBIC", "EXTENT OF CHANGE, IF ANY, SINCE BASELINE", "ADCS-CGIC", "", "NO CHANGE", "", "4", 4, "", "", "", "", "", 12.0, "WEEK 24", 168, "TREATMENT", "2013-06-21", 172], [338, "CDISCPILOT01", "QS", "01-710-1070", 6001, "CIBIC", "EXTENT OF CHANGE, IF ANY, SINCE BASELINE", "ADCS-CGIC", "", "MINIMAL WORSENING", "", "5", 5, "", "", "", "", "", 8.0, "WEEK 8", 56, "TREATMENT", "2012-11-05", 59], [339, "CDISCPILOT01", "QS", "01-710-1070", 6002, "CIBIC", "EXTENT OF CHANGE, IF ANY, SINCE BASELINE", "ADCS-CGIC", "", "NO CHANGE", "", "4", 4, "", "", "", "", "", 10.0, "WEEK 16", 112, "TREATMENT", "2012-12-28", 112], [340, "CDISCPILOT01", "QS", "01-710-1077", 6001, "CIBIC", "EXTENT OF CHANGE, IF ANY, SINCE BASELINE", "ADCS-CGIC", "", "NO CHANGE", "", "4", 4, "", "", "", "", "", 8.0, "WEEK 8", 56, "TREATMENT", "2014-01-12", 57], [341, "CDISCPILOT01", "QS", "01-710-1077", 6002, "CIBIC", "EXTENT OF CHANGE, IF ANY, SINCE BASELINE", "ADCS-CGIC", "", "NO CHANGE", "", "4", 4, "", "", "", "", "", 10.0, "WEEK 16", 112, "TREATMENT", "2014-03-09", 113], [342, "CDISCPILOT01", "QS", "01-710-1077", 6003, "CIBIC", "EXTENT OF CHANGE, IF ANY, SINCE BASELINE", "ADCS-CGIC", "", "MINIMAL WORSENING", "", "5", 5, "", "", "", "", "", 12.0, "WEEK 24", 168, "TREATMENT", "2014-05-03", 168], [343, "CDISCPILOT01", "QS", "01-710-1078", 6001, "CIBIC", "EXTENT OF CHANGE, IF ANY, SINCE BASELINE", "ADCS-CGIC", "", "MINIMAL WORSENING", "", "5", 5, "", "", "", "", "", 8.0, "WEEK 8", 56, "TREATMENT", "2013-11-17", 62], [344, "CDISCPILOT01", "QS", "01-710-1078", 6002, "CIBIC", "EXTENT OF CHANGE, IF ANY, SINCE BASELINE", "ADCS-CGIC", "", "NO CHANGE", "", "4", 4, "", "", "", "", "", 10.0, "WEEK 16", 112, "TREATMENT", "2014-01-12", 118], [345, "CDISCPILOT01", "QS", "01-710-1078", 6003, "CIBIC", "EXTENT OF CHANGE, IF ANY, SINCE BASELINE", "ADCS-CGIC", "", "NO CHANGE", "", "4", 4, "", "", "", "", "", 12.0, "WEEK 24", 168, "TREATMENT", "2014-03-08", 173], [346, "CDISCPILOT01", "QS", "01-710-1142", 6001, "CIBIC", "EXTENT OF CHANGE, IF ANY, SINCE BASELINE", "ADCS-CGIC", "", "NO CHANGE", "", "4", 4, "", "", "", "", "", 5.0, "WEEK 4", 28, "TREATMENT", "2012-10-23", 22], [347, "CDISCPILOT01", "QS", "01-710-1154", 6001, "CIBIC", "EXTENT OF CHANGE, IF ANY, SINCE BASELINE", "ADCS-CGIC", "", "NO CHANGE", "", "4", 4, "", "", "", "", "", 7.0, "WEEK 6", 42, "TREATMENT", "2014-05-09", 42], [348, "CDISCPILOT01", "QS", "01-710-1166", 6001, "CIBIC", "EXTENT OF CHANGE, IF ANY, SINCE BASELINE", "ADCS-CGIC", "", "NO CHANGE", "", "4", 4, "", "", "", "", "", 8.0, "WEEK 8", 56, "TREATMENT", "2013-01-25", 57], [349, "CDISCPILOT01", "QS", "01-710-1183", 6001, "CIBIC", "EXTENT OF CHANGE, IF ANY, SINCE BASELINE", "ADCS-CGIC", "", "MINIMAL IMPROVEMENT", "", "3", 3, "", "", "", "", "", 8.0, "WEEK 8", 56, "TREATMENT", "2014-01-11", 57], [350, "CDISCPILOT01", "QS", "01-710-1183", 6002, "CIBIC", "EXTENT OF CHANGE, IF ANY, SINCE BASELINE", "ADCS-CGIC", "", "MINIMAL IMPROVEMENT", "", "3", 3, "", "", "", "", "", 10.0, "WEEK 16", 112, "TREATMENT", "2014-03-10", 115], [351, "CDISCPILOT01", "QS", "01-710-1183", 6003, "CIBIC", "EXTENT OF CHANGE, IF ANY, SINCE BASELINE", "ADCS-CGIC", "", "NO CHANGE", "", "4", 4, "", "", "", "", "", 12.0, "WEEK 24", 168, "TREATMENT", "2014-05-03", 169], [352, "CDISCPILOT01", "QS", "01-710-1187", 6001, "CIBIC", "EXTENT OF CHANGE, IF ANY, SINCE BASELINE", "ADCS-CGIC", "", "MINIMAL WORSENING", "", "5", 5, "", "", "", "", "", 8.0, "WEEK 8", 56, "TREATMENT", "2013-01-06", 58], [353, "CDISCPILOT01", "QS", "01-710-1187", 6002, "CIBIC", "EXTENT OF CHANGE, IF ANY, SINCE BASELINE", "ADCS-CGIC", "", "NO CHANGE", "", "4", 4, "", "", "", "", "", 10.0, "WEEK 16", 112, "TREATMENT", "2013-03-02", 113], [354, "CDISCPILOT01", "QS", "01-710-1187", 6003, "CIBIC", "EXTENT OF CHANGE, IF ANY, SINCE BASELINE", "ADCS-CGIC", "", "MODERATE WORSENING", "", "6", 6, "", "", "", "", "", 12.0, "WEEK 24", 168, "TREATMENT", "2013-04-28", 170], [355, "CDISCPILOT01", "QS", "01-710-1235", 6001, "CIBIC", "EXTENT OF CHANGE, IF ANY, SINCE BASELINE", "ADCS-CGIC", "", "NO CHANGE", "", "4", 4, "", "", "", "", "", 8.0, "WEEK 8", 56, "TREATMENT", "2012-11-21", 57], [356, "CDISCPILOT01", "QS", "01-710-1235", 6002, "CIBIC", "EXTENT OF CHANGE, IF ANY, SINCE BASELINE", "ADCS-CGIC", "", "MINIMAL IMPROVEMENT", "", "3", 3, "", "", "", "", "", 10.0, "WEEK 16", 112, "TREATMENT", "2013-01-15", 112], [357, "CDISCPILOT01", "QS", "01-710-1235", 6003, "CIBIC", "EXTENT OF CHANGE, IF ANY, SINCE BASELINE", "ADCS-CGIC", "", "MINIMAL IMPROVEMENT", "", "3", 3, "", "", "", "", "", 12.0, "WEEK 24", 168, "TREATMENT", "2013-03-13", 169], [358, "CDISCPILOT01", "QS", "01-710-1249", 6001, "CIBIC", "EXTENT OF CHANGE, IF ANY, SINCE BASELINE", "ADCS-CGIC", "", "NO CHANGE", "", "4", 4, "", "", "", "", "", 8.0, "WEEK 8", 56, "TREATMENT", "2014-02-22", 57], [359, "CDISCPILOT01", "QS", "01-710-1249", 6002, "CIBIC", "EXTENT OF CHANGE, IF ANY, SINCE BASELINE", "ADCS-CGIC", "", "MINIMAL WORSENING", "", "5", 5, "", "", "", "", "", 10.0, "WEEK 16", 112, "TREATMENT", "2014-04-19", 113], [360, "CDISCPILOT01", "QS", "01-710-1249", 6003, "CIBIC", "EXTENT OF CHANGE, IF ANY, SINCE BASELINE", "ADCS-CGIC", "", "MINIMAL WORSENING", "", "5", 5, "", "", "", "", "", 12.0, "WEEK 24", 168, "TREATMENT", "2014-06-14", 169], [361, "CDISCPILOT01", "QS", "01-710-1264", 6001, "CIBIC", "EXTENT OF CHANGE, IF ANY, SINCE BASELINE", "ADCS-CGIC", "", "MINIMAL WORSENING", "", "5", 5, "", "", "", "", "", 8.0, "WEEK 8", 56, "TREATMENT", "2013-08-08", 57], [362, "CDISCPILOT01", "QS", "01-710-1264", 6002, "CIBIC", "EXTENT OF CHANGE, IF ANY, SINCE BASELINE", "ADCS-CGIC", "", "NO CHANGE", "", "4", 4, "", "", "", "", "", 10.0, "WEEK 16", 112, "TREATMENT", "2013-10-01", 111], [363, "CDISCPILOT01", "QS", "01-710-1264", 6003, "CIBIC", "EXTENT OF CHANGE, IF ANY, SINCE BASELINE", "ADCS-CGIC", "", "NO CHANGE", "", "4", 4, "", "", "", "", "", 11.0, "WEEK 20", 140, "TREATMENT", "2013-10-12", 122], [364, "CDISCPILOT01", "QS", "01-710-1270", 6001, "CIBIC", "EXTENT OF CHANGE, IF ANY, SINCE BASELINE", "ADCS-CGIC", "", "NO CHANGE", "", "4", 4, "", "", "", "", "", 4.0, "WEEK 2", 14, "TREATMENT", "2014-03-01", 18], [365, "CDISCPILOT01", "QS", "01-710-1278", 6001, "CIBIC", "EXTENT OF CHANGE, IF ANY, SINCE BASELINE", "ADCS-CGIC", "", "MINIMAL IMPROVEMENT", "", "3", 3, "", "", "", "", "", 8.0, "WEEK 8", 56, "TREATMENT", "2013-02-21", 60], [366, "CDISCPILOT01", "QS", "01-710-1278", 6002, "CIBIC", "EXTENT OF CHANGE, IF ANY, SINCE BASELINE", "ADCS-CGIC", "", "MINIMAL IMPROVEMENT", "", "3", 3, "", "", "", "", "", 9.0, "WEEK 12", 84, "TREATMENT", "2013-03-03", 70], [367, "CDISCPILOT01", "QS", "01-710-1300", 6001, "CIBIC", "EXTENT OF CHANGE, IF ANY, SINCE BASELINE", "ADCS-CGIC", "", "NO CHANGE", "", "4", 4, "", "", "", "", "", 8.0, "WEEK 8", 56, "TREATMENT", "2013-02-11", 59], [368, "CDISCPILOT01", "QS", "01-710-1300", 6002, "CIBIC", "EXTENT OF CHANGE, IF ANY, SINCE BASELINE", "ADCS-CGIC", "", "NO CHANGE", "", "4", 4, "", "", "", "", "", 9.0, "WEEK 12", 84, "TREATMENT", "2013-02-19", 67], [369, "CDISCPILOT01", "QS", "01-710-1315", 6001, "CIBIC", "EXTENT OF CHANGE, IF ANY, SINCE BASELINE", "ADCS-CGIC", "", "NO CHANGE", "", "4", 4, "", "", "", "", "", 8.0, "WEEK 8", 56, "TREATMENT", "2013-04-23", 56], [370, "CDISCPILOT01", "QS", "01-710-1315", 6002, "CIBIC", "EXTENT OF CHANGE, IF ANY, SINCE BASELINE", "ADCS-CGIC", "", "NO CHANGE", "", "4", 4, "", "", "", "", "", 10.0, "WEEK 16", 112, "TREATMENT", "2013-06-18", 112], [371, "CDISCPILOT01", "QS", "01-710-1315", 6003, "CIBIC", "EXTENT OF CHANGE, IF ANY, SINCE BASELINE", "ADCS-CGIC", "", "NO CHANGE", "", "4", 4, "", "", "", "", "", 11.0, "WEEK 20", 140, "TREATMENT", "2013-07-16", 140], [372, "CDISCPILOT01", "QS", "01-710-1354", 6001, "CIBIC", "EXTENT OF CHANGE, IF ANY, SINCE BASELINE", "ADCS-CGIC", "", "MINIMAL WORSENING", "", "5", 5, "", "", "", "", "", 8.0, "WEEK 8", 56, "TREATMENT", "2013-01-06", 57], [373, "CDISCPILOT01", "QS", "01-710-1354", 6002, "CIBIC", "EXTENT OF CHANGE, IF ANY, SINCE BASELINE", "ADCS-CGIC", "", "MINIMAL WORSENING", "", "5", 5, "", "", "", "", "", 10.0, "WEEK 16", 112, "TREATMENT", "2013-03-02", 112], [374, "CDISCPILOT01", "QS", "01-710-1354", 6003, "CIBIC", "EXTENT OF CHANGE, IF ANY, SINCE BASELINE", "ADCS-CGIC", "", "MINIMAL WORSENING", "", "5", 5, "", "", "", "", "", 12.0, "WEEK 24", 168, "TREATMENT", "2013-04-21", 162], [375, "CDISCPILOT01", "QS", "01-710-1358", 6001, "CIBIC", "EXTENT OF CHANGE, IF ANY, SINCE BASELINE", "ADCS-CGIC", "", "NO CHANGE", "", "4", 4, "", "", "", "", "", 8.0, "WEEK 8", 56, "TREATMENT", "2012-11-14", 59], [376, "CDISCPILOT01", "QS", "01-710-1358", 6002, "CIBIC", "EXTENT OF CHANGE, IF ANY, SINCE BASELINE", "ADCS-CGIC", "", "MINIMAL WORSENING", "", "5", 5, "", "", "", "", "", 10.0, "WEEK 16", 112, "TREATMENT", "2013-01-09", 115], [377, "CDISCPILOT01", "QS", "01-710-1368", 6001, "CIBIC", "EXTENT OF CHANGE, IF ANY, SINCE BASELINE", "ADCS-CGIC", "", "NO CHANGE", "", "4", 4, "", "", "", "", "", 8.0, "WEEK 8", 56, "TREATMENT", "2013-12-19", 58], [378, "CDISCPILOT01", "QS", "01-710-1368", 6002, "CIBIC", "EXTENT OF CHANGE, IF ANY, SINCE BASELINE", "ADCS-CGIC", "", "MINIMAL WORSENING", "", "5", 5, "", "", "", "", "", 10.0, "WEEK 16", 112, "TREATMENT", "2014-02-12", 113], [379, "CDISCPILOT01", "QS", "01-710-1368", 6003, "CIBIC", "EXTENT OF CHANGE, IF ANY, SINCE BASELINE", "ADCS-CGIC", "", "MINIMAL WORSENING", "", "5", 5, "", "", "", "", "", 12.0, "WEEK 24", 168, "TREATMENT", "2014-04-09", 169], [380, "CDISCPILOT01", "QS", "01-710-1385", 6001, "CIBIC", "EXTENT OF CHANGE, IF ANY, SINCE BASELINE", "ADCS-CGIC", "", "MINIMAL IMPROVEMENT", "", "3", 3, "", "", "", "", "", 8.0, "WEEK 8", 56, "TREATMENT", "2012-12-25", 58], [381, "CDISCPILOT01", "QS", "01-710-1385", 6002, "CIBIC", "EXTENT OF CHANGE, IF ANY, SINCE BASELINE", "ADCS-CGIC", "", "MODERATE IMPROVEMENT", "", "2", 2, "", "", "", "", "", 10.0, "WEEK 16", 112, "TREATMENT", "2013-02-18", 113], [382, "CDISCPILOT01", "QS", "01-710-1408", 6001, "CIBIC", "EXTENT OF CHANGE, IF ANY, SINCE BASELINE", "ADCS-CGIC", "", "NO CHANGE", "", "4", 4, "", "", "", "", "", 8.0, "WEEK 8", 56, "TREATMENT", "2013-03-07", 62], [383, "CDISCPILOT01", "QS", "01-710-1408", 6002, "CIBIC", "EXTENT OF CHANGE, IF ANY, SINCE BASELINE", "ADCS-CGIC", "", "NO CHANGE", "", "4", 4, "", "", "", "", "", 10.0, "WEEK 16", 112, "TREATMENT", "2013-05-03", 119], [384, "CDISCPILOT01", "QS", "01-710-1408", 6003, "CIBIC", "EXTENT OF CHANGE, IF ANY, SINCE BASELINE", "ADCS-CGIC", "", "NO CHANGE", "", "4", 4, "", "", "", "", "", 12.0, "WEEK 24", 168, "TREATMENT", "2013-06-28", 175], [385, "CDISCPILOT01", "QS", "01-711-1012", 6001, "CIBIC", "EXTENT OF CHANGE, IF ANY, SINCE BASELINE", "ADCS-CGIC", "", "NO CHANGE", "", "4", 4, "", "", "", "", "", 5.0, "WEEK 4", 28, "TREATMENT", "2013-05-02", 30], [386, "CDISCPILOT01", "QS", "01-711-1012", 6002, "CIBIC", "EXTENT OF CHANGE, IF ANY, SINCE BASELINE", "ADCS-CGIC", "", "MINIMAL WORSENING", "", "5", 5, "", "", "", "", "", 201.0, "RETRIEVAL", 168, "TREATMENT", "2013-09-18", 169], [387, "CDISCPILOT01", "QS", "01-711-1036", 6001, "CIBIC", "EXTENT OF CHANGE, IF ANY, SINCE BASELINE", "ADCS-CGIC", "", "NO CHANGE", "", "4", 4, "", "", "", "", "", 8.0, "WEEK 8", 56, "TREATMENT", "2012-09-23", 57], [388, "CDISCPILOT01", "QS", "01-711-1036", 6002, "CIBIC", "EXTENT OF CHANGE, IF ANY, SINCE BASELINE", "ADCS-CGIC", "", "MINIMAL WORSENING", "", "5", 5, "", "", "", "", "", 10.0, "WEEK 16", 112, "TREATMENT", "2012-11-17", 112], [389, "CDISCPILOT01", "QS", "01-711-1036", 6003, "CIBIC", "EXTENT OF CHANGE, IF ANY, SINCE BASELINE", "ADCS-CGIC", "", "MINIMAL WORSENING", "", "5", 5, "", "", "", "", "", 12.0, "WEEK 24", 168, "TREATMENT", "2013-01-13", 169], [390, "CDISCPILOT01", "QS", "01-711-1143", 6001, "CIBIC", "EXTENT OF CHANGE, IF ANY, SINCE BASELINE", "ADCS-CGIC", "", "MINIMAL IMPROVEMENT", "", "3", 3, "", "", "", "", "", 8.0, "WEEK 8", 56, "TREATMENT", "2013-05-28", 56], [391, "CDISCPILOT01", "QS", "01-711-1143", 6002, "CIBIC", "EXTENT OF CHANGE, IF ANY, SINCE BASELINE", "ADCS-CGIC", "", "MINIMAL IMPROVEMENT", "", "3", 3, "", "", "", "", "", 9.0, "WEEK 12", 84, "TREATMENT", "2013-06-01", 60], [392, "CDISCPILOT01", "QS", "01-711-1143", 6003, "CIBIC", "EXTENT OF CHANGE, IF ANY, SINCE BASELINE", "ADCS-CGIC", "", "NO CHANGE", "", "4", 4, "", "", "", "", "", 201.0, "RETRIEVAL", 168, "TREATMENT", "2013-09-22", 173], [393, "CDISCPILOT01", "QS", "01-713-1043", 6001, "CIBIC", "EXTENT OF CHANGE, IF ANY, SINCE BASELINE", "ADCS-CGIC", "", "NO CHANGE", "", "4", 4, "", "", "", "", "", 8.0, "WEEK 8", 56, "TREATMENT", "2013-11-11", 58], [394, "CDISCPILOT01", "QS", "01-713-1043", 6002, "CIBIC", "EXTENT OF CHANGE, IF ANY, SINCE BASELINE", "ADCS-CGIC", "", "NO CHANGE", "", "4", 4, "", "", "", "", "", 10.0, "WEEK 16", 112, "TREATMENT", "2014-01-03", 111], [395, "CDISCPILOT01", "QS", "01-713-1043", 6003, "CIBIC", "EXTENT OF CHANGE, IF ANY, SINCE BASELINE", "ADCS-CGIC", "", "NO CHANGE", "", "4", 4, "", "", "", "", "", 12.0, "WEEK 24", 168, "TREATMENT", "2014-02-28", 167], [396, "CDISCPILOT01", "QS", "01-713-1073", 6001, "CIBIC", "EXTENT OF CHANGE, IF ANY, SINCE BASELINE", "ADCS-CGIC", "", "MINIMAL IMPROVEMENT", "", "3", 3, "", "", "", "", "", 8.0, "WEEK 8", 56, "TREATMENT", "2014-05-25", 57], [397, "CDISCPILOT01", "QS", "01-713-1073", 6002, "CIBIC", "EXTENT OF CHANGE, IF ANY, SINCE BASELINE", "ADCS-CGIC", "", "NO CHANGE", "", "4", 4, "", "", "", "", "", 10.0, "WEEK 16", 112, "TREATMENT", "2014-07-21", 114], [398, "CDISCPILOT01", "QS", "01-713-1073", 6003, "CIBIC", "EXTENT OF CHANGE, IF ANY, SINCE BASELINE", "ADCS-CGIC", "", "MINIMAL WORSENING", "", "5", 5, "", "", "", "", "", 12.0, "WEEK 24", 168, "TREATMENT", "2014-09-21", 176], [399, "CDISCPILOT01", "QS", "01-713-1106", 6001, "CIBIC", "EXTENT OF CHANGE, IF ANY, SINCE BASELINE", "ADCS-CGIC", "", "MINIMAL IMPROVEMENT", "", "3", 3, "", "", "", "", "", 8.0, "WEEK 8", 56, "TREATMENT", "2012-12-27", 58], [400, "CDISCPILOT01", "QS", "01-713-1106", 6002, "CIBIC", "EXTENT OF CHANGE, IF ANY, SINCE BASELINE", "ADCS-CGIC", "", "MINIMAL IMPROVEMENT", "", "3", 3, "", "", "", "", "", 10.0, "WEEK 16", 112, "TREATMENT", "2013-02-27", 120], [401, "CDISCPILOT01", "QS", "01-713-1106", 6003, "CIBIC", "EXTENT OF CHANGE, IF ANY, SINCE BASELINE", "ADCS-CGIC", "", "MINIMAL IMPROVEMENT", "", "3", 3, "", "", "", "", "", 12.0, "WEEK 24", 168, "TREATMENT", "2013-04-22", 174], [402, "CDISCPILOT01", "QS", "01-713-1179", 6001, "CIBIC", "EXTENT OF CHANGE, IF ANY, SINCE BASELINE", "ADCS-CGIC", "", "NO CHANGE", "", "4", 4, "", "", "", "", "", 8.0, "WEEK 8", 56, "TREATMENT", "2013-10-04", 57], [403, "CDISCPILOT01", "QS", "01-713-1179", 6002, "CIBIC", "EXTENT OF CHANGE, IF ANY, SINCE BASELINE", "ADCS-CGIC", "", "MINIMAL WORSENING", "", "5", 5, "", "", "", "", "", 10.0, "WEEK 16", 112, "TREATMENT", "2013-11-26", 110], [404, "CDISCPILOT01", "QS", "01-713-1179", 6003, "CIBIC", "EXTENT OF CHANGE, IF ANY, SINCE BASELINE", "ADCS-CGIC", "", "MODERATE IMPROVEMENT", "", "2", 2, "", "", "", "", "", 12.0, "WEEK 24", 168, "TREATMENT", "2014-01-24", 169], [405, "CDISCPILOT01", "QS", "01-713-1209", 6001, "CIBIC", "EXTENT OF CHANGE, IF ANY, SINCE BASELINE", "ADCS-CGIC", "", "MINIMAL WORSENING", "", "5", 5, "", "", "", "", "", 8.0, "WEEK 8", 56, "TREATMENT", "2013-07-22", 57], [406, "CDISCPILOT01", "QS", "01-713-1209", 6002, "CIBIC", "EXTENT OF CHANGE, IF ANY, SINCE BASELINE", "ADCS-CGIC", "", "MINIMAL WORSENING", "", "5", 5, "", "", "", "", "", 10.0, "WEEK 16", 112, "TREATMENT", "2013-09-15", 112], [407, "CDISCPILOT01", "QS", "01-713-1209", 6003, "CIBIC", "EXTENT OF CHANGE, IF ANY, SINCE BASELINE", "ADCS-CGIC", "", "MINIMAL WORSENING", "", "5", 5, "", "", "", "", "", 12.0, "WEEK 24", 168, "TREATMENT", "2013-11-14", 172], [408, "CDISCPILOT01", "QS", "01-713-1256", 6001, "CIBIC", "EXTENT OF CHANGE, IF ANY, SINCE BASELINE", "ADCS-CGIC", "", "NO CHANGE", "", "4", 4, "", "", "", "", "", 8.0, "WEEK 8", 56, "TREATMENT", "2012-11-14", 57], [409, "CDISCPILOT01", "QS", "01-713-1256", 6002, "CIBIC", "EXTENT OF CHANGE, IF ANY, SINCE BASELINE", "ADCS-CGIC", "", "MINIMAL WORSENING", "", "5", 5, "", "", "", "", "", 10.0, "WEEK 16", 112, "TREATMENT", "2013-01-08", 112], [410, "CDISCPILOT01", "QS", "01-713-1256", 6003, "CIBIC", "EXTENT OF CHANGE, IF ANY, SINCE BASELINE", "ADCS-CGIC", "", "MODERATE WORSENING", "", "6", 6, "", "", "", "", "", 12.0, "WEEK 24", 168, "TREATMENT", "2013-03-09", 172], [411, "CDISCPILOT01", "QS", "01-713-1269", 6001, "CIBIC", "EXTENT OF CHANGE, IF ANY, SINCE BASELINE", "ADCS-CGIC", "", "NO CHANGE", "", "4", 4, "", "", "", "", "", 8.0, "WEEK 8", 56, "TREATMENT", "2014-03-23", 56], [412, "CDISCPILOT01", "QS", "01-713-1269", 6002, "CIBIC", "EXTENT OF CHANGE, IF ANY, SINCE BASELINE", "ADCS-CGIC", "", "MINIMAL WORSENING", "", "5", 5, "", "", "", "", "", 10.0, "WEEK 16", 112, "TREATMENT", "2014-05-19", 113], [413, "CDISCPILOT01", "QS", "01-713-1269", 6003, "CIBIC", "EXTENT OF CHANGE, IF ANY, SINCE BASELINE", "ADCS-CGIC", "", "MINIMAL WORSENING", "", "5", 5, "", "", "", "", "", 12.0, "WEEK 24", 168, "TREATMENT", "2014-07-13", 168], [414, "CDISCPILOT01", "QS", "01-713-1448", 6001, "CIBIC", "EXTENT OF CHANGE, IF ANY, SINCE BASELINE", "ADCS-CGIC", "", "NO CHANGE", "", "4", 4, "", "", "", "", "", 8.0, "WEEK 8", 56, "TREATMENT", "2014-03-17", 58], [415, "CDISCPILOT01", "QS", "01-713-1448", 6002, "CIBIC", "EXTENT OF CHANGE, IF ANY, SINCE BASELINE", "ADCS-CGIC", "", "MINIMAL WORSENING", "", "5", 5, "", "", "", "", "", 10.0, "WEEK 16", 112, "TREATMENT", "2014-05-17", 119], [416, "CDISCPILOT01", "QS", "01-714-1035", 6001, "CIBIC", "EXTENT OF CHANGE, IF ANY, SINCE BASELINE", "ADCS-CGIC", "", "NO CHANGE", "", "4", 4, "", "", "", "", "", 8.0, "WEEK 8", 56, "TREATMENT", "2014-06-17", 62], [417, "CDISCPILOT01", "QS", "01-714-1035", 6002, "CIBIC", "EXTENT OF CHANGE, IF ANY, SINCE BASELINE", "ADCS-CGIC", "", "NO CHANGE", "", "4", 4, "", "", "", "", "", 10.0, "WEEK 16", 112, "TREATMENT", "2014-08-06", 112], [418, "CDISCPILOT01", "QS", "01-714-1035", 6003, "CIBIC", "EXTENT OF CHANGE, IF ANY, SINCE BASELINE", "ADCS-CGIC", "", "NO CHANGE", "", "4", 4, "", "", "", "", "", 12.0, "WEEK 24", 168, "TREATMENT", "2014-10-02", 169], [419, "CDISCPILOT01", "QS", "01-714-1068", 6001, "CIBIC", "EXTENT OF CHANGE, IF ANY, SINCE BASELINE", "ADCS-CGIC", "", "NO CHANGE", "", "4", 4, "", "", "", "", "", 8.0, "WEEK 8", 56, "TREATMENT", "2013-10-03", 57], [420, "CDISCPILOT01", "QS", "01-714-1068", 6002, "CIBIC", "EXTENT OF CHANGE, IF ANY, SINCE BASELINE", "ADCS-CGIC", "", "NO CHANGE", "", "4", 4, "", "", "", "", "", 9.0, "WEEK 12", 84, "TREATMENT", "2013-10-16", 70], [421, "CDISCPILOT01", "QS", "01-714-1195", 6001, "CIBIC", "EXTENT OF CHANGE, IF ANY, SINCE BASELINE", "ADCS-CGIC", "", "MINIMAL IMPROVEMENT", "", "3", 3, "", "", "", "", "", 8.0, "WEEK 8", 56, "TREATMENT", "2013-06-20", 56], [422, "CDISCPILOT01", "QS", "01-714-1195", 6002, "CIBIC", "EXTENT OF CHANGE, IF ANY, SINCE BASELINE", "ADCS-CGIC", "", "MODERATE IMPROVEMENT", "", "2", 2, "", "", "", "", "", 10.0, "WEEK 16", 112, "TREATMENT", "2013-08-09", 106], [423, "CDISCPILOT01", "QS", "01-714-1195", 6003, "CIBIC", "EXTENT OF CHANGE, IF ANY, SINCE BASELINE", "ADCS-CGIC", "", "MINIMAL IMPROVEMENT", "", "3", 3, "", "", "", "", "", 12.0, "WEEK 24", 168, "TREATMENT", "2013-10-10", 168], [424, "CDISCPILOT01", "QS", "01-714-1288", 6001, "CIBIC", "EXTENT OF CHANGE, IF ANY, SINCE BASELINE", "ADCS-CGIC", "", "MINIMAL IMPROVEMENT", "", "3", 3, "", "", "", "", "", 8.0, "WEEK 8", 56, "TREATMENT", "2014-02-02", 61], [425, "CDISCPILOT01", "QS", "01-714-1288", 6002, "CIBIC", "EXTENT OF CHANGE, IF ANY, SINCE BASELINE", "ADCS-CGIC", "", "NO CHANGE", "", "4", 4, "", "", "", "", "", 10.0, "WEEK 16", 112, "TREATMENT", "2014-04-01", 119], [426, "CDISCPILOT01", "QS", "01-714-1288", 6003, "CIBIC", "EXTENT OF CHANGE, IF ANY, SINCE BASELINE", "ADCS-CGIC", "", "MINIMAL IMPROVEMENT", "", "3", 3, "", "", "", "", "", 12.0, "WEEK 24", 168, "TREATMENT", "2014-05-27", 175], [427, "CDISCPILOT01", "QS", "01-714-1375", 6001, "CIBIC", "EXTENT OF CHANGE, IF ANY, SINCE BASELINE", "ADCS-CGIC", "", "NO CHANGE", "", "4", 4, "", "", "", "", "", 8.0, "WEEK 8", 56, "TREATMENT", "2013-04-26", 60], [428, "CDISCPILOT01", "QS", "01-714-1375", 6002, "CIBIC", "EXTENT OF CHANGE, IF ANY, SINCE BASELINE", "ADCS-CGIC", "", "NO CHANGE", "", "4", 4, "", "", "", "", "", 10.0, "WEEK 16", 112, "TREATMENT", "2013-06-22", 117], [429, "CDISCPILOT01", "QS", "01-714-1375", 6003, "CIBIC", "EXTENT OF CHANGE, IF ANY, SINCE BASELINE", "ADCS-CGIC", "", "MINIMAL IMPROVEMENT", "", "3", 3, "", "", "", "", "", 12.0, "WEEK 24", 168, "TREATMENT", "2013-08-23", 179], [430, "CDISCPILOT01", "QS", "01-714-1425", 6001, "CIBIC", "EXTENT OF CHANGE, IF ANY, SINCE BASELINE", "ADCS-CGIC", "", "NO CHANGE", "", "4", 4, "", "", "", "", "", 4.0, "WEEK 2", 14, "TREATMENT", "2013-08-22", 8], [431, "CDISCPILOT01", "QS", "01-715-1085", 6001, "CIBIC", "EXTENT OF CHANGE, IF ANY, SINCE BASELINE", "ADCS-CGIC", "", "NO CHANGE", "", "4", 4, "", "", "", "", "", 8.0, "WEEK 8", 56, "TREATMENT", "2013-04-14", 58], [432, "CDISCPILOT01", "QS", "01-715-1085", 6002, "CIBIC", "EXTENT OF CHANGE, IF ANY, SINCE BASELINE", "ADCS-CGIC", "", "NO CHANGE", "", "4", 4, "", "", "", "", "", 10.0, "WEEK 16", 112, "TREATMENT", "2013-06-09", 114], [433, "CDISCPILOT01", "QS", "01-715-1085", 6003, "CIBIC", "EXTENT OF CHANGE, IF ANY, SINCE BASELINE", "ADCS-CGIC", "", "NO CHANGE", "", "4", 4, "", "", "", "", "", 12.0, "WEEK 24", 168, "TREATMENT", "2013-08-04", 170], [434, "CDISCPILOT01", "QS", "01-715-1107", 6001, "CIBIC", "EXTENT OF CHANGE, IF ANY, SINCE BASELINE", "ADCS-CGIC", "", "NO CHANGE", "", "4", 4, "", "", "", "", "", 8.0, "WEEK 8", 56, "TREATMENT", "2013-04-23", 57], [435, "CDISCPILOT01", "QS", "01-715-1107", 6002, "CIBIC", "EXTENT OF CHANGE, IF ANY, SINCE BASELINE", "ADCS-CGIC", "", "NO CHANGE", "", "4", 4, "", "", "", "", "", 9.0, "WEEK 12", 84, "TREATMENT", "2013-05-13", 77], [436, "CDISCPILOT01", "QS", "01-715-1107", 6003, "CIBIC", "EXTENT OF CHANGE, IF ANY, SINCE BASELINE", "ADCS-CGIC", "", "MINIMAL WORSENING", "", "5", 5, "", "", "", "", "", 201.0, "RETRIEVAL", 168, "TREATMENT", "2013-08-14", 170], [437, "CDISCPILOT01", "QS", "01-715-1207", 6001, "CIBIC", "EXTENT OF CHANGE, IF ANY, SINCE BASELINE", "ADCS-CGIC", "", "MINIMAL IMPROVEMENT", "", "3", 3, "", "", "", "", "", 8.0, "WEEK 8", 56, "TREATMENT", "2013-01-13", 57], [438, "CDISCPILOT01", "QS", "01-715-1207", 6002, "CIBIC", "EXTENT OF CHANGE, IF ANY, SINCE BASELINE", "ADCS-CGIC", "", "NO CHANGE", "", "4", 4, "", "", "", "", "", 10.0, "WEEK 16", 112, "TREATMENT", "2013-03-10", 113], [439, "CDISCPILOT01", "QS", "01-715-1207", 6003, "CIBIC", "EXTENT OF CHANGE, IF ANY, SINCE BASELINE", "ADCS-CGIC", "", "NO CHANGE", "", "4", 4, "", "", "", "", "", 12.0, "WEEK 24", 168, "TREATMENT", "2013-05-05", 169], [440, "CDISCPILOT01", "QS", "01-715-1319", 6001, "CIBIC", "EXTENT OF CHANGE, IF ANY, SINCE BASELINE", "ADCS-CGIC", "", "MINIMAL WORSENING", "", "5", 5, "", "", "", "", "", 5.0, "WEEK 4", 28, "TREATMENT", "2013-03-18", 30], [441, "CDISCPILOT01", "QS", "01-715-1321", 6001, "CIBIC", "EXTENT OF CHANGE, IF ANY, SINCE BASELINE", "ADCS-CGIC", "", "MINIMAL IMPROVEMENT", "", "3", 3, "", "", "", "", "", 8.0, "WEEK 8", 56, "TREATMENT", "2014-04-09", 58], [442, "CDISCPILOT01", "QS", "01-715-1321", 6002, "CIBIC", "EXTENT OF CHANGE, IF ANY, SINCE BASELINE", "ADCS-CGIC", "", "MINIMAL WORSENING", "", "5", 5, "", "", "", "", "", 9.0, "WEEK 12", 84, "TREATMENT", "2014-04-22", 71], [443, "CDISCPILOT01", "QS", "01-715-1397", 6001, "CIBIC", "EXTENT OF CHANGE, IF ANY, SINCE BASELINE", "ADCS-CGIC", "", "NO CHANGE", "", "4", 4, "", "", "", "", "", 8.0, "WEEK 8", 56, "TREATMENT", "2013-05-29", 57], [444, "CDISCPILOT01", "QS", "01-715-1397", 6002, "CIBIC", "EXTENT OF CHANGE, IF ANY, SINCE BASELINE", "ADCS-CGIC", "", "NO CHANGE", "", "4", 4, "", "", "", "", "", 10.0, "WEEK 16", 112, "TREATMENT", "2013-07-24", 113], [445, "CDISCPILOT01", "QS", "01-715-1397", 6003, "CIBIC", "EXTENT OF CHANGE, IF ANY, SINCE BASELINE", "ADCS-CGIC", "", "NO CHANGE", "", "4", 4, "", "", "", "", "", 12.0, "WEEK 24", 168, "TREATMENT", "2013-09-18", 169], [446, "CDISCPILOT01", "QS", "01-715-1405", 6001, "CIBIC", "EXTENT OF CHANGE, IF ANY, SINCE BASELINE", "ADCS-CGIC", "", "NO CHANGE", "", "4", 4, "", "", "", "", "", 4.0, "WEEK 2", 14, "TREATMENT", "2013-07-13", 8], [447, "CDISCPILOT01", "QS", "01-715-1405", 6002, "CIBIC", "EXTENT OF CHANGE, IF ANY, SINCE BASELINE", "ADCS-CGIC", "", "MINIMAL WORSENING", "", "5", 5, "", "", "", "", "", 201.0, "RETRIEVAL", 168, "TREATMENT", "2014-01-11", 190], [448, "CDISCPILOT01", "QS", "01-716-1024", 6001, "CIBIC", "EXTENT OF CHANGE, IF ANY, SINCE BASELINE", "ADCS-CGIC", "", "NO CHANGE", "", "4", 4, "", "", "", "", "", 8.0, "WEEK 8", 56, "TREATMENT", "2012-09-03", 57], [449, "CDISCPILOT01", "QS", "01-716-1024", 6002, "CIBIC", "EXTENT OF CHANGE, IF ANY, SINCE BASELINE", "ADCS-CGIC", "", "NO CHANGE", "", "4", 4, "", "", "", "", "", 10.0, "WEEK 16", 112, "TREATMENT", "2012-11-01", 116], [450, "CDISCPILOT01", "QS", "01-716-1024", 6003, "CIBIC", "EXTENT OF CHANGE, IF ANY, SINCE BASELINE", "ADCS-CGIC", "", "NO CHANGE", "", "4", 4, "", "", "", "", "", 12.0, "WEEK 24", 168, "TREATMENT", "2012-12-30", 175], [451, "CDISCPILOT01", "QS", "01-716-1026", 6001, "CIBIC", "EXTENT OF CHANGE, IF ANY, SINCE BASELINE", "ADCS-CGIC", "", "MINIMAL IMPROVEMENT", "", "3", 3, "", "", "", "", "", 8.0, "WEEK 8", 56, "TREATMENT", "2014-05-29", 58], [452, "CDISCPILOT01", "QS", "01-716-1026", 6002, "CIBIC", "EXTENT OF CHANGE, IF ANY, SINCE BASELINE", "ADCS-CGIC", "", "MINIMAL WORSENING", "", "5", 5, "", "", "", "", "", 10.0, "WEEK 16", 112, "TREATMENT", "2014-07-31", 121], [453, "CDISCPILOT01", "QS", "01-716-1026", 6003, "CIBIC", "EXTENT OF CHANGE, IF ANY, SINCE BASELINE", "ADCS-CGIC", "", "NO CHANGE", "", "4", 4, "", "", "", "", "", 12.0, "WEEK 24", 168, "TREATMENT", "2014-09-27", 179], [454, "CDISCPILOT01", "QS", "01-716-1030", 6001, "CIBIC", "EXTENT OF CHANGE, IF ANY, SINCE BASELINE", "ADCS-CGIC", "", "NO CHANGE", "", "4", 4, "", "", "", "", "", 4.0, "WEEK 2", 14, "TREATMENT", "2014-01-10", 14], [455, "CDISCPILOT01", "QS", "01-716-1044", 6001, "CIBIC", "EXTENT OF CHANGE, IF ANY, SINCE BASELINE", "ADCS-CGIC", "", "MODERATE IMPROVEMENT", "", "2", 2, "", "", "", "", "", 8.0, "WEEK 8", 56, "TREATMENT", "2013-06-28", 63], [456, "CDISCPILOT01", "QS", "01-716-1044", 6002, "CIBIC", "EXTENT OF CHANGE, IF ANY, SINCE BASELINE", "ADCS-CGIC", "", "MINIMAL IMPROVEMENT", "", "3", 3, "", "", "", "", "", 10.0, "WEEK 16", 112, "TREATMENT", "2013-08-16", 112], [457, "CDISCPILOT01", "QS", "01-716-1044", 6003, "CIBIC", "EXTENT OF CHANGE, IF ANY, SINCE BASELINE", "ADCS-CGIC", "", "MINIMAL WORSENING", "", "5", 5, "", "", "", "", "", 12.0, "WEEK 24", 168, "TREATMENT", "2013-10-16", 173], [458, "CDISCPILOT01", "QS", "01-716-1063", 6001, "CIBIC", "EXTENT OF CHANGE, IF ANY, SINCE BASELINE", "ADCS-CGIC", "", "MINIMAL WORSENING", "", "5", 5, "", "", "", "", "", 8.0, "WEEK 8", 56, "TREATMENT", "2013-07-04", 57], [459, "CDISCPILOT01", "QS", "01-716-1063", 6002, "CIBIC", "EXTENT OF CHANGE, IF ANY, SINCE BASELINE", "ADCS-CGIC", "", "NO CHANGE", "", "4", 4, "", "", "", "", "", 10.0, "WEEK 16", 112, "TREATMENT", "2013-08-28", 112], [460, "CDISCPILOT01", "QS", "01-716-1063", 6003, "CIBIC", "EXTENT OF CHANGE, IF ANY, SINCE BASELINE", "ADCS-CGIC", "", "MODERATE WORSENING", "", "6", 6, "", "", "", "", "", 201.0, "RETRIEVAL", 168, "TREATMENT", "2013-11-17", 193], [461, "CDISCPILOT01", "QS", "01-716-1071", 6001, "CIBIC", "EXTENT OF CHANGE, IF ANY, SINCE BASELINE", "ADCS-CGIC", "", "NO CHANGE", "", "4", 4, "", "", "", "", "", 8.0, "WEEK 8", 56, "TREATMENT", "2013-08-01", 55], [462, "CDISCPILOT01", "QS", "01-716-1071", 6002, "CIBIC", "EXTENT OF CHANGE, IF ANY, SINCE BASELINE", "ADCS-CGIC", "", "NO CHANGE", "", "4", 4, "", "", "", "", "", 201.0, "RETRIEVAL", 168, "TREATMENT", "2013-12-16", 192], [463, "CDISCPILOT01", "QS", "01-716-1094", 6001, "CIBIC", "EXTENT OF CHANGE, IF ANY, SINCE BASELINE", "ADCS-CGIC", "", "MODERATE IMPROVEMENT", "", "2", 2, "", "", "", "", "", 7.0, "WEEK 6", 42, "TREATMENT", "2013-01-26", 39], [464, "CDISCPILOT01", "QS", "01-716-1094", 6002, "CIBIC", "EXTENT OF CHANGE, IF ANY, SINCE BASELINE", "ADCS-CGIC", "", "NO CHANGE", "", "4", 4, "", "", "", "", "", 201.0, "RETRIEVAL", 168, "TREATMENT", "2013-06-22", 186], [465, "CDISCPILOT01", "QS", "01-716-1103", 6001, "CIBIC", "EXTENT OF CHANGE, IF ANY, SINCE BASELINE", "ADCS-CGIC", "", "MINIMAL IMPROVEMENT", "", "3", 3, "", "", "", "", "", 8.0, "WEEK 8", 56, "TREATMENT", "2014-05-22", 64], [466, "CDISCPILOT01", "QS", "01-716-1103", 6002, "CIBIC", "EXTENT OF CHANGE, IF ANY, SINCE BASELINE", "ADCS-CGIC", "", "MINIMAL IMPROVEMENT", "", "3", 3, "", "", "", "", "", 10.0, "WEEK 16", 112, "TREATMENT", "2014-07-23", 126], [467, "CDISCPILOT01", "QS", "01-716-1103", 6003, "CIBIC", "EXTENT OF CHANGE, IF ANY, SINCE BASELINE", "ADCS-CGIC", "", "MINIMAL IMPROVEMENT", "", "3", 3, "", "", "", "", "", 12.0, "WEEK 24", 168, "TREATMENT", "2014-08-30", 164], [468, "CDISCPILOT01", "QS", "01-716-1108", 6001, "CIBIC", "EXTENT OF CHANGE, IF ANY, SINCE BASELINE", "ADCS-CGIC", "", "NO CHANGE", "", "4", 4, "", "", "", "", "", 8.0, "WEEK 8", 56, "TREATMENT", "2013-04-12", 60], [469, "CDISCPILOT01", "QS", "01-716-1108", 6002, "CIBIC", "EXTENT OF CHANGE, IF ANY, SINCE BASELINE", "ADCS-CGIC", "", "NO CHANGE", "", "4", 4, "", "", "", "", "", 10.0, "WEEK 16", 112, "TREATMENT", "2013-06-07", 116], [470, "CDISCPILOT01", "QS", "01-716-1108", 6003, "CIBIC", "EXTENT OF CHANGE, IF ANY, SINCE BASELINE", "ADCS-CGIC", "", "NO CHANGE", "", "4", 4, "", "", "", "", "", 12.0, "WEEK 24", 168, "TREATMENT", "2013-08-02", 172], [471, "CDISCPILOT01", "QS", "01-716-1151", 6001, "CIBIC", "EXTENT OF CHANGE, IF ANY, SINCE BASELINE", "ADCS-CGIC", "", "NO CHANGE", "", "4", 4, "", "", "", "", "", 8.0, "WEEK 8", 56, "TREATMENT", "2013-04-02", 61], [472, "CDISCPILOT01", "QS", "01-716-1151", 6002, "CIBIC", "EXTENT OF CHANGE, IF ANY, SINCE BASELINE", "ADCS-CGIC", "", "MINIMAL IMPROVEMENT", "", "3", 3, "", "", "", "", "", 10.0, "WEEK 16", 112, "TREATMENT", "2013-06-07", 127], [473, "CDISCPILOT01", "QS", "01-716-1151", 6003, "CIBIC", "EXTENT OF CHANGE, IF ANY, SINCE BASELINE", "ADCS-CGIC", "", "MINIMAL WORSENING", "", "5", 5, "", "", "", "", "", 201.0, "RETRIEVAL", 168, "TREATMENT", "2013-08-13", 194], [474, "CDISCPILOT01", "QS", "01-716-1157", 6001, "CIBIC", "EXTENT OF CHANGE, IF ANY, SINCE BASELINE", "ADCS-CGIC", "", "MINIMAL IMPROVEMENT", "", "3", 3, "", "", "", "", "", 8.0, "WEEK 8", 56, "TREATMENT", "2013-11-26", 56], [475, "CDISCPILOT01", "QS", "01-716-1157", 6002, "CIBIC", "EXTENT OF CHANGE, IF ANY, SINCE BASELINE", "ADCS-CGIC", "", "MINIMAL WORSENING", "", "5", 5, "", "", "", "", "", 10.0, "WEEK 16", 112, "TREATMENT", "2014-01-20", 111], [476, "CDISCPILOT01", "QS", "01-716-1157", 6003, "CIBIC", "EXTENT OF CHANGE, IF ANY, SINCE BASELINE", "ADCS-CGIC", "", "MINIMAL WORSENING", "", "5", 5, "", "", "", "", "", 12.0, "WEEK 24", 168, "TREATMENT", "2014-03-26", 176], [477, "CDISCPILOT01", "QS", "01-716-1160", 6001, "CIBIC", "EXTENT OF CHANGE, IF ANY, SINCE BASELINE", "ADCS-CGIC", "", "NO CHANGE", "", "4", 4, "", "", "", "", "", 8.0, "WEEK 8", 56, "TREATMENT", "2013-06-12", 69], [478, "CDISCPILOT01", "QS", "01-716-1160", 6002, "CIBIC", "EXTENT OF CHANGE, IF ANY, SINCE BASELINE", "ADCS-CGIC", "", "NO CHANGE", "", "4", 4, "", "", "", "", "", 10.0, "WEEK 16", 112, "TREATMENT", "2013-07-27", 114], [479, "CDISCPILOT01", "QS", "01-716-1160", 6003, "CIBIC", "EXTENT OF CHANGE, IF ANY, SINCE BASELINE", "ADCS-CGIC", "", "NO CHANGE", "", "4", 4, "", "", "", "", "", 12.0, "WEEK 24", 168, "TREATMENT", "2013-09-27", 176], [480, "CDISCPILOT01", "QS", "01-716-1167", 6001, "CIBIC", "EXTENT OF CHANGE, IF ANY, SINCE BASELINE", "ADCS-CGIC", "", "MINIMAL IMPROVEMENT", "", "3", 3, "", "", "", "", "", 8.0, "WEEK 8", 56, "TREATMENT", "2012-12-03", 57], [481, "CDISCPILOT01", "QS", "01-716-1167", 6002, "CIBIC", "EXTENT OF CHANGE, IF ANY, SINCE BASELINE", "ADCS-CGIC", "", "MINIMAL WORSENING", "", "5", 5, "", "", "", "", "", 10.0, "WEEK 16", 112, "TREATMENT", "2013-01-28", 113], [482, "CDISCPILOT01", "QS", "01-716-1167", 6003, "CIBIC", "EXTENT OF CHANGE, IF ANY, SINCE BASELINE", "ADCS-CGIC", "", "MINIMAL IMPROVEMENT", "", "3", 3, "", "", "", "", "", 12.0, "WEEK 24", 168, "TREATMENT", "2013-03-24", 168], [483, "CDISCPILOT01", "QS", "01-716-1177", 6001, "CIBIC", "EXTENT OF CHANGE, IF ANY, SINCE BASELINE", "ADCS-CGIC", "", "NO CHANGE", "", "4", 4, "", "", "", "", "", 8.0, "WEEK 8", 56, "TREATMENT", "2014-10-30", 59], [484, "CDISCPILOT01", "QS", "01-716-1177", 6002, "CIBIC", "EXTENT OF CHANGE, IF ANY, SINCE BASELINE", "ADCS-CGIC", "", "MINIMAL WORSENING", "", "5", 5, "", "", "", "", "", 10.0, "WEEK 16", 112, "TREATMENT", "2015-01-01", 122], [485, "CDISCPILOT01", "QS", "01-716-1177", 6003, "CIBIC", "EXTENT OF CHANGE, IF ANY, SINCE BASELINE", "ADCS-CGIC", "", "NO CHANGE", "", "4", 4, "", "", "", "", "", 12.0, "WEEK 24", 168, "TREATMENT", "2015-02-17", 169], [486, "CDISCPILOT01", "QS", "01-716-1189", 6001, "CIBIC", "EXTENT OF CHANGE, IF ANY, SINCE BASELINE", "ADCS-CGIC", "", "MODERATE WORSENING", "", "6", 6, "", "", "", "", "", 8.0, "WEEK 8", 56, "TREATMENT", "2012-12-08", 61], [487, "CDISCPILOT01", "QS", "01-716-1189", 6002, "CIBIC", "EXTENT OF CHANGE, IF ANY, SINCE BASELINE", "ADCS-CGIC", "", "MINIMAL WORSENING", "", "5", 5, "", "", "", "", "", 10.0, "WEEK 16", 112, "TREATMENT", "2013-02-03", 118], [488, "CDISCPILOT01", "QS", "01-716-1189", 6003, "CIBIC", "EXTENT OF CHANGE, IF ANY, SINCE BASELINE", "ADCS-CGIC", "", "MINIMAL WORSENING", "", "5", 5, "", "", "", "", "", 11.0, "WEEK 20", 140, "TREATMENT", "2013-03-03", 146], [489, "CDISCPILOT01", "QS", "01-716-1189", 6004, "CIBIC", "EXTENT OF CHANGE, IF ANY, SINCE BASELINE", "ADCS-CGIC", "", "MODERATE WORSENING", "", "6", 6, "", "", "", "", "", 201.0, "RETRIEVAL", 168, "TREATMENT", "2013-04-08", 182], [490, "CDISCPILOT01", "QS", "01-716-1229", 6001, "CIBIC", "EXTENT OF CHANGE, IF ANY, SINCE BASELINE", "ADCS-CGIC", "", "NO CHANGE", "", "4", 4, "", "", "", "", "", 7.0, "WEEK 6", 42, "TREATMENT", "2013-04-02", 42], [491, "CDISCPILOT01", "QS", "01-716-1298", 6001, "CIBIC", "EXTENT OF CHANGE, IF ANY, SINCE BASELINE", "ADCS-CGIC", "", "NO CHANGE", "", "4", 4, "", "", "", "", "", 8.0, "WEEK 8", 56, "TREATMENT", "2013-06-07", 61], [492, "CDISCPILOT01", "QS", "01-716-1298", 6002, "CIBIC", "EXTENT OF CHANGE, IF ANY, SINCE BASELINE", "ADCS-CGIC", "", "NO CHANGE", "", "4", 4, "", "", "", "", "", 9.0, "WEEK 12", 84, "TREATMENT", "2013-07-06", 90], [493, "CDISCPILOT01", "QS", "01-716-1298", 6003, "CIBIC", "EXTENT OF CHANGE, IF ANY, SINCE BASELINE", "ADCS-CGIC", "", "MINIMAL WORSENING", "", "5", 5, "", "", "", "", "", 201.0, "RETRIEVAL", 168, "TREATMENT", "2013-10-07", 183], [494, "CDISCPILOT01", "QS", "01-716-1308", 6001, "CIBIC", "EXTENT OF CHANGE, IF ANY, SINCE BASELINE", "ADCS-CGIC", "", "MODERATE WORSENING", "", "6", 6, "", "", "", "", "", 7.0, "WEEK 6", 42, "TREATMENT", "2013-10-07", 41], [495, "CDISCPILOT01", "QS", "01-716-1311", 6001, "CIBIC", "EXTENT OF CHANGE, IF ANY, SINCE BASELINE", "ADCS-CGIC", "", "NO CHANGE", "", "4", 4, "", "", "", "", "", 8.0, "WEEK 8", 56, "TREATMENT", "2014-07-08", 56], [496, "CDISCPILOT01", "QS", "01-716-1311", 6002, "CIBIC", "EXTENT OF CHANGE, IF ANY, SINCE BASELINE", "ADCS-CGIC", "", "MODERATE WORSENING", "", "6", 6, "", "", "", "", "", 10.0, "WEEK 16", 112, "TREATMENT", "2014-09-10", 120], [497, "CDISCPILOT01", "QS", "01-716-1311", 6003, "CIBIC", "EXTENT OF CHANGE, IF ANY, SINCE BASELINE", "ADCS-CGIC", "", "MINIMAL WORSENING", "", "5", 5, "", "", "", "", "", 201.0, "RETRIEVAL", 168, "TREATMENT", "2014-11-15", 186], [498, "CDISCPILOT01", "QS", "01-716-1364", 6001, "CIBIC", "EXTENT OF CHANGE, IF ANY, SINCE BASELINE", "ADCS-CGIC", "", "NO CHANGE", "", "4", 4, "", "", "", "", "", 8.0, "WEEK 8", 56, "TREATMENT", "2013-09-02", 61], [499, "CDISCPILOT01", "QS", "01-716-1364", 6002, "CIBIC", "EXTENT OF CHANGE, IF ANY, SINCE BASELINE", "ADCS-CGIC", "", "MINIMAL WORSENING", "", "5", 5, "", "", "", "", "", 10.0, "WEEK 16", 112, "TREATMENT", "2013-11-07", 127], [500, "CDISCPILOT01", "QS", "01-716-1364", 6003, "CIBIC", "EXTENT OF CHANGE, IF ANY, SINCE BASELINE", "ADCS-CGIC", "", "MINIMAL WORSENING", "", "5", 5, "", "", "", "", "", 12.0, "WEEK 24", 168, "TREATMENT", "2013-12-23", 173], [501, "CDISCPILOT01", "QS", "01-716-1373", 6001, "CIBIC", "EXTENT OF CHANGE, IF ANY, SINCE BASELINE", "ADCS-CGIC", "", "MINIMAL IMPROVEMENT", "", "3", 3, "", "", "", "", "", 8.0, "WEEK 8", 56, "TREATMENT", "2013-02-09", 58], [502, "CDISCPILOT01", "QS", "01-716-1373", 6002, "CIBIC", "EXTENT OF CHANGE, IF ANY, SINCE BASELINE", "ADCS-CGIC", "", "MINIMAL IMPROVEMENT", "", "3", 3, "", "", "", "", "", 9.0, "WEEK 12", 84, "TREATMENT", "2013-02-28", 77], [503, "CDISCPILOT01", "QS", "01-716-1418", 6001, "CIBIC", "EXTENT OF CHANGE, IF ANY, SINCE BASELINE", "ADCS-CGIC", "", "NO CHANGE", "", "4", 4, "", "", "", "", "", 8.0, "WEEK 8", 56, "TREATMENT", "2013-07-11", 68], [504, "CDISCPILOT01", "QS", "01-716-1418", 6002, "CIBIC", "EXTENT OF CHANGE, IF ANY, SINCE BASELINE", "ADCS-CGIC", "", "MINIMAL IMPROVEMENT", "", "3", 3, "", "", "", "", "", 10.0, "WEEK 16", 112, "TREATMENT", "2013-09-05", 124], [505, "CDISCPILOT01", "QS", "01-716-1418", 6003, "CIBIC", "EXTENT OF CHANGE, IF ANY, SINCE BASELINE", "ADCS-CGIC", "", "MINIMAL WORSENING", "", "5", 5, "", "", "", "", "", 12.0, "WEEK 24", 168, "TREATMENT", "2013-11-06", 186], [506, "CDISCPILOT01", "QS", "01-716-1441", 6001, "CIBIC", "EXTENT OF CHANGE, IF ANY, SINCE BASELINE", "ADCS-CGIC", "", "NO CHANGE", "", "4", 4, "", "", "", "", "", 8.0, "WEEK 8", 56, "TREATMENT", "2014-03-19", 57], [507, "CDISCPILOT01", "QS", "01-716-1441", 6002, "CIBIC", "EXTENT OF CHANGE, IF ANY, SINCE BASELINE", "ADCS-CGIC", "", "MINIMAL IMPROVEMENT", "", "3", 3, "", "", "", "", "", 10.0, "WEEK 16", 112, "TREATMENT", "2014-05-19", 118], [508, "CDISCPILOT01", "QS", "01-716-1441", 6003, "CIBIC", "EXTENT OF CHANGE, IF ANY, SINCE BASELINE", "ADCS-CGIC", "", "MINIMAL WORSENING", "", "5", 5, "", "", "", "", "", 12.0, "WEEK 24", 168, "TREATMENT", "2014-07-08", 168], [509, "CDISCPILOT01", "QS", "01-716-1447", 6001, "CIBIC", "EXTENT OF CHANGE, IF ANY, SINCE BASELINE", "ADCS-CGIC", "", "MODERATE IMPROVEMENT", "", "2", 2, "", "", "", "", "", 8.0, "WEEK 8", 56, "TREATMENT", "2014-02-10", 57], [510, "CDISCPILOT01", "QS", "01-716-1447", 6002, "CIBIC", "EXTENT OF CHANGE, IF ANY, SINCE BASELINE", "ADCS-CGIC", "", "MODERATE IMPROVEMENT", "", "2", 2, "", "", "", "", "", 10.0, "WEEK 16", 112, "TREATMENT", "2014-04-12", 118], [511, "CDISCPILOT01", "QS", "01-716-1447", 6003, "CIBIC", "EXTENT OF CHANGE, IF ANY, SINCE BASELINE", "ADCS-CGIC", "", "MINIMAL IMPROVEMENT", "", "3", 3, "", "", "", "", "", 12.0, "WEEK 24", 168, "TREATMENT", "2014-06-07", 174], [512, "CDISCPILOT01", "QS", "01-717-1004", 6001, "CIBIC", "EXTENT OF CHANGE, IF ANY, SINCE BASELINE", "ADCS-CGIC", "", "MINIMAL IMPROVEMENT", "", "3", 3, "", "", "", "", "", 8.0, "WEEK 8", 56, "TREATMENT", "2014-03-11", 57], [513, "CDISCPILOT01", "QS", "01-717-1004", 6002, "CIBIC", "EXTENT OF CHANGE, IF ANY, SINCE BASELINE", "ADCS-CGIC", "", "NO CHANGE", "", "4", 4, "", "", "", "", "", 10.0, "WEEK 16", 112, "TREATMENT", "2014-05-06", 113], [514, "CDISCPILOT01", "QS", "01-717-1004", 6003, "CIBIC", "EXTENT OF CHANGE, IF ANY, SINCE BASELINE", "ADCS-CGIC", "", "NO CHANGE", "", "4", 4, "", "", "", "", "", 12.0, "WEEK 24", 168, "TREATMENT", "2014-07-01", 169], [515, "CDISCPILOT01", "QS", "01-717-1109", 6001, "CIBIC", "EXTENT OF CHANGE, IF ANY, SINCE BASELINE", "ADCS-CGIC", "", "MINIMAL WORSENING", "", "5", 5, "", "", "", "", "", 8.0, "WEEK 8", 56, "TREATMENT", "2014-03-24", 57], [516, "CDISCPILOT01", "QS", "01-717-1109", 6002, "CIBIC", "EXTENT OF CHANGE, IF ANY, SINCE BASELINE", "ADCS-CGIC", "", "MINIMAL WORSENING", "", "5", 5, "", "", "", "", "", 10.0, "WEEK 16", 112, "TREATMENT", "2014-05-19", 113], [517, "CDISCPILOT01", "QS", "01-717-1109", 6003, "CIBIC", "EXTENT OF CHANGE, IF ANY, SINCE BASELINE", "ADCS-CGIC", "", "MODERATE WORSENING", "", "6", 6, "", "", "", "", "", 12.0, "WEEK 24", 168, "TREATMENT", "2014-07-18", 173], [518, "CDISCPILOT01", "QS", "01-717-1174", 6001, "CIBIC", "EXTENT OF CHANGE, IF ANY, SINCE BASELINE", "ADCS-CGIC", "", "NO CHANGE", "", "4", 4, "", "", "", "", "", 8.0, "WEEK 8", 56, "TREATMENT", "2013-03-19", 57], [519, "CDISCPILOT01", "QS", "01-717-1174", 6002, "CIBIC", "EXTENT OF CHANGE, IF ANY, SINCE BASELINE", "ADCS-CGIC", "", "MINIMAL WORSENING", "", "5", 5, "", "", "", "", "", 10.0, "WEEK 16", 112, "TREATMENT", "2013-05-18", 117], [520, "CDISCPILOT01", "QS", "01-717-1174", 6003, "CIBIC", "EXTENT OF CHANGE, IF ANY, SINCE BASELINE", "ADCS-CGIC", "", "MINIMAL WORSENING", "", "5", 5, "", "", "", "", "", 12.0, "WEEK 24", 168, "TREATMENT", "2013-07-07", 167], [521, "CDISCPILOT01", "QS", "01-717-1201", 6001, "CIBIC", "EXTENT OF CHANGE, IF ANY, SINCE BASELINE", "ADCS-CGIC", "", "MINIMAL WORSENING", "", "5", 5, "", "", "", "", "", 8.0, "WEEK 8", 56, "TREATMENT", "2014-02-21", 65], [522, "CDISCPILOT01", "QS", "01-717-1344", 6001, "CIBIC", "EXTENT OF CHANGE, IF ANY, SINCE BASELINE", "ADCS-CGIC", "", "NO CHANGE", "", "4", 4, "", "", "", "", "", 8.0, "WEEK 8", 56, "TREATMENT", "2014-03-14", 63], [523, "CDISCPILOT01", "QS", "01-717-1357", 6001, "CIBIC", "EXTENT OF CHANGE, IF ANY, SINCE BASELINE", "ADCS-CGIC", "", "MINIMAL WORSENING", "", "5", 5, "", "", "", "", "", 8.0, "WEEK 8", 56, "TREATMENT", "2013-06-19", 50], [524, "CDISCPILOT01", "QS", "01-717-1357", 6002, "CIBIC", "EXTENT OF CHANGE, IF ANY, SINCE BASELINE", "ADCS-CGIC", "", "NO CHANGE", "", "4", 4, "", "", "", "", "", 10.0, "WEEK 16", 112, "TREATMENT", "2013-08-21", 113], [525, "CDISCPILOT01", "QS", "01-717-1357", 6003, "CIBIC", "EXTENT OF CHANGE, IF ANY, SINCE BASELINE", "ADCS-CGIC", "", "MINIMAL WORSENING", "", "5", 5, "", "", "", "", "", 12.0, "WEEK 24", 168, "TREATMENT", "2013-10-20", 173], [526, "CDISCPILOT01", "QS", "01-717-1446", 6001, "CIBIC", "EXTENT OF CHANGE, IF ANY, SINCE BASELINE", "ADCS-CGIC", "", "NO CHANGE", "", "4", 4, "", "", "", "", "", 8.0, "WEEK 8", 56, "TREATMENT", "2013-10-30", 60], [527, "CDISCPILOT01", "QS", "01-717-1446", 6002, "CIBIC", "EXTENT OF CHANGE, IF ANY, SINCE BASELINE", "ADCS-CGIC", "", "NO CHANGE", "", "4", 4, "", "", "", "", "", 10.0, "WEEK 16", 112, "TREATMENT", "2013-12-29", 120], [528, "CDISCPILOT01", "QS", "01-717-1446", 6003, "CIBIC", "EXTENT OF CHANGE, IF ANY, SINCE BASELINE", "ADCS-CGIC", "", "NO CHANGE", "", "4", 4, "", "", "", "", "", 12.0, "WEEK 24", 168, "TREATMENT", "2014-02-16", 169], [529, "CDISCPILOT01", "QS", "01-718-1066", 6001, "CIBIC", "EXTENT OF CHANGE, IF ANY, SINCE BASELINE", "ADCS-CGIC", "", "MINIMAL WORSENING", "", "5", 5, "", "", "", "", "", 4.0, "WEEK 2", 14, "TREATMENT", "2013-07-30", 24], [530, "CDISCPILOT01", "QS", "01-718-1066", 6002, "CIBIC", "EXTENT OF CHANGE, IF ANY, SINCE BASELINE", "ADCS-CGIC", "", "MINIMAL WORSENING", "", "5", 5, "", "", "", "", "", 201.0, "RETRIEVAL", 168, "TREATMENT", "2014-01-13", 191], [531, "CDISCPILOT01", "QS", "01-718-1079", 6001, "CIBIC", "EXTENT OF CHANGE, IF ANY, SINCE BASELINE", "ADCS-CGIC", "", "NO CHANGE", "", "4", 4, "", "", "", "", "", 7.0, "WEEK 6", 42, "TREATMENT", "2012-11-06", 49], [532, "CDISCPILOT01", "QS", "01-718-1079", 6002, "CIBIC", "EXTENT OF CHANGE, IF ANY, SINCE BASELINE", "ADCS-CGIC", "", "MINIMAL IMPROVEMENT", "", "3", 3, "", "", "", "", "", 201.0, "RETRIEVAL", 168, "TREATMENT", "2013-03-05", 168], [533, "CDISCPILOT01", "QS", "01-718-1101", 6001, "CIBIC", "EXTENT OF CHANGE, IF ANY, SINCE BASELINE", "ADCS-CGIC", "", "NO CHANGE", "", "4", 4, "", "", "", "", "", 8.0, "WEEK 8", 56, "TREATMENT", "2013-04-13", 56], [534, "CDISCPILOT01", "QS", "01-718-1101", 6002, "CIBIC", "EXTENT OF CHANGE, IF ANY, SINCE BASELINE", "ADCS-CGIC", "", "MINIMAL WORSENING", "", "5", 5, "", "", "", "", "", 10.0, "WEEK 16", 112, "TREATMENT", "2013-06-14", 118], [535, "CDISCPILOT01", "QS", "01-718-1101", 6003, "CIBIC", "EXTENT OF CHANGE, IF ANY, SINCE BASELINE", "ADCS-CGIC", "", "NO CHANGE", "", "4", 4, "", "", "", "", "", 12.0, "WEEK 24", 168, "TREATMENT", "2013-08-02", 167], [536, "CDISCPILOT01", "QS", "01-718-1139", 6001, "CIBIC", "EXTENT OF CHANGE, IF ANY, SINCE BASELINE", "ADCS-CGIC", "", "NO CHANGE", "", "4", 4, "", "", "", "", "", 8.0, "WEEK 8", 56, "TREATMENT", "2013-07-14", 57], [537, "CDISCPILOT01", "QS", "01-718-1139", 6002, "CIBIC", "EXTENT OF CHANGE, IF ANY, SINCE BASELINE", "ADCS-CGIC", "", "NO CHANGE", "", "4", 4, "", "", "", "", "", 10.0, "WEEK 16", 112, "TREATMENT", "2013-09-08", 113], [538, "CDISCPILOT01", "QS", "01-718-1139", 6003, "CIBIC", "EXTENT OF CHANGE, IF ANY, SINCE BASELINE", "ADCS-CGIC", "", "NO CHANGE", "", "4", 4, "", "", "", "", "", 12.0, "WEEK 24", 168, "TREATMENT", "2013-11-03", 169], [539, "CDISCPILOT01", "QS", "01-718-1150", 6001, "CIBIC", "EXTENT OF CHANGE, IF ANY, SINCE BASELINE", "ADCS-CGIC", "", "NO CHANGE", "", "4", 4, "", "", "", "", "", 8.0, "WEEK 8", 56, "TREATMENT", "2013-03-17", 58], [540, "CDISCPILOT01", "QS", "01-718-1150", 6002, "CIBIC", "EXTENT OF CHANGE, IF ANY, SINCE BASELINE", "ADCS-CGIC", "", "NO CHANGE", "", "4", 4, "", "", "", "", "", 10.0, "WEEK 16", 112, "TREATMENT", "2013-05-10", 112], [541, "CDISCPILOT01", "QS", "01-718-1150", 6003, "CIBIC", "EXTENT OF CHANGE, IF ANY, SINCE BASELINE", "ADCS-CGIC", "", "NO CHANGE", "", "4", 4, "", "", "", "", "", 12.0, "WEEK 24", 168, "TREATMENT", "2013-07-07", 170], [542, "CDISCPILOT01", "QS", "01-718-1170", 6001, "CIBIC", "EXTENT OF CHANGE, IF ANY, SINCE BASELINE", "ADCS-CGIC", "", "MINIMAL WORSENING", "", "5", 5, "", "", "", "", "", 5.0, "WEEK 4", 28, "TREATMENT", "2013-11-03", 49], [543, "CDISCPILOT01", "QS", "01-718-1170", 6002, "CIBIC", "EXTENT OF CHANGE, IF ANY, SINCE BASELINE", "ADCS-CGIC", "", "NO CHANGE", "", "4", 4, "", "", "", "", "", 201.0, "RETRIEVAL", 168, "TREATMENT", "2014-03-15", 181], [544, "CDISCPILOT01", "QS", "01-718-1172", 6001, "CIBIC", "EXTENT OF CHANGE, IF ANY, SINCE BASELINE", "ADCS-CGIC", "", "NO CHANGE", "", "4", 4, "", "", "", "", "", 8.0, "WEEK 8", 56, "TREATMENT", "2013-11-16", 57], [545, "CDISCPILOT01", "QS", "01-718-1172", 6002, "CIBIC", "EXTENT OF CHANGE, IF ANY, SINCE BASELINE", "ADCS-CGIC", "", "NO CHANGE", "", "4", 4, "", "", "", "", "", 9.0, "WEEK 12", 84, "TREATMENT", "2013-11-29", 70], [546, "CDISCPILOT01", "QS", "01-718-1172", 6003, "CIBIC", "EXTENT OF CHANGE, IF ANY, SINCE BASELINE", "ADCS-CGIC", "", "NO CHANGE", "", "4", 4, "", "", "", "", "", 201.0, "RETRIEVAL", 168, "TREATMENT", "2014-03-21", 182], [547, "CDISCPILOT01", "QS", "01-718-1250", 6001, "CIBIC", "EXTENT OF CHANGE, IF ANY, SINCE BASELINE", "ADCS-CGIC", "", "NO CHANGE", "", "4", 4, "", "", "", "", "", 8.0, "WEEK 8", 56, "TREATMENT", "2013-11-16", 57], [548, "CDISCPILOT01", "QS", "01-718-1250", 6002, "CIBIC", "EXTENT OF CHANGE, IF ANY, SINCE BASELINE", "ADCS-CGIC", "", "NO CHANGE", "", "4", 4, "", "", "", "", "", 10.0, "WEEK 16", 112, "TREATMENT", "2014-01-11", 113], [549, "CDISCPILOT01", "QS", "01-718-1250", 6003, "CIBIC", "EXTENT OF CHANGE, IF ANY, SINCE BASELINE", "ADCS-CGIC", "", "NO CHANGE", "", "4", 4, "", "", "", "", "", 11.0, "WEEK 20", 140, "TREATMENT", "2014-02-08", 141], [550, "CDISCPILOT01", "QS", "01-718-1250", 6004, "CIBIC", "EXTENT OF CHANGE, IF ANY, SINCE BASELINE", "ADCS-CGIC", "", "NO CHANGE", "", "4", 4, "", "", "", "", "", 201.0, "RETRIEVAL", 168, "TREATMENT", "2014-03-08", 169], [551, "CDISCPILOT01", "QS", "01-718-1254", 6001, "CIBIC", "EXTENT OF CHANGE, IF ANY, SINCE BASELINE", "ADCS-CGIC", "", "NO CHANGE", "", "4", 4, "", "", "", "", "", 8.0, "WEEK 8", 56, "TREATMENT", "2013-09-05", 58], [552, "CDISCPILOT01", "QS", "01-718-1254", 6002, "CIBIC", "EXTENT OF CHANGE, IF ANY, SINCE BASELINE", "ADCS-CGIC", "", "NO CHANGE", "", "4", 4, "", "", "", "", "", 10.0, "WEEK 16", 112, "TREATMENT", "2013-10-31", 114], [553, "CDISCPILOT01", "QS", "01-718-1254", 6003, "CIBIC", "EXTENT OF CHANGE, IF ANY, SINCE BASELINE", "ADCS-CGIC", "", "NO CHANGE", "", "4", 4, "", "", "", "", "", 12.0, "WEEK 24", 168, "TREATMENT", "2013-12-26", 170], [554, "CDISCPILOT01", "QS", "01-718-1328", 6001, "CIBIC", "EXTENT OF CHANGE, IF ANY, SINCE BASELINE", "ADCS-CGIC", "", "MINIMAL WORSENING", "", "5", 5, "", "", "", "", "", 8.0, "WEEK 8", 56, "TREATMENT", "2013-04-04", 63], [555, "CDISCPILOT01", "QS", "01-718-1328", 6002, "CIBIC", "EXTENT OF CHANGE, IF ANY, SINCE BASELINE", "ADCS-CGIC", "", "MINIMAL WORSENING", "", "5", 5, "", "", "", "", "", 9.0, "WEEK 12", 84, "TREATMENT", "2013-05-01", 90], [556, "CDISCPILOT01", "QS", "01-718-1328", 6003, "CIBIC", "EXTENT OF CHANGE, IF ANY, SINCE BASELINE", "ADCS-CGIC", "", "MINIMAL WORSENING", "", "5", 5, "", "", "", "", "", 201.0, "RETRIEVAL", 168, "TREATMENT", "2013-07-24", 174], [557, "CDISCPILOT01", "QS", "01-718-1355", 6001, "CIBIC", "EXTENT OF CHANGE, IF ANY, SINCE BASELINE", "ADCS-CGIC", "", "MINIMAL WORSENING", "", "5", 5, "", "", "", "", "", 8.0, "WEEK 8", 56, "TREATMENT", "2013-04-25", 57], [558, "CDISCPILOT01", "QS", "01-718-1355", 6002, "CIBIC", "EXTENT OF CHANGE, IF ANY, SINCE BASELINE", "ADCS-CGIC", "", "NO CHANGE", "", "4", 4, "", "", "", "", "", 10.0, "WEEK 16", 112, "TREATMENT", "2013-06-20", 113], [559, "CDISCPILOT01", "QS", "01-718-1355", 6003, "CIBIC", "EXTENT OF CHANGE, IF ANY, SINCE BASELINE", "ADCS-CGIC", "", "NO CHANGE", "", "4", 4, "", "", "", "", "", 12.0, "WEEK 24", 168, "TREATMENT", "2013-08-15", 169], [560, "CDISCPILOT01", "QS", "01-718-1371", 6001, "CIBIC", "EXTENT OF CHANGE, IF ANY, SINCE BASELINE", "ADCS-CGIC", "", "NO CHANGE", "", "4", 4, "", "", "", "", "", 9.0, "WEEK 12", 84, "TREATMENT", "2013-08-08", 105], [561, "CDISCPILOT01", "QS", "01-718-1427", 6001, "CIBIC", "EXTENT OF CHANGE, IF ANY, SINCE BASELINE", "ADCS-CGIC", "", "NO CHANGE", "", "4", 4, "", "", "", "", "", 8.0, "WEEK 8", 56, "TREATMENT", "2013-02-18", 64], [562, "CDISCPILOT01", "QS", "01-718-1427", 6002, "CIBIC", "EXTENT OF CHANGE, IF ANY, SINCE BASELINE", "ADCS-CGIC", "", "NO CHANGE", "", "4", 4, "", "", "", "", "", 201.0, "RETRIEVAL", 168, "TREATMENT", "2013-06-03", 169]]}}}}