{"creationDateTime": "2023-08-04T11:25:57", "datasetJSONVersion": "1.0.0", "fileOID": "UpdatedCDISCPILOT.CDISC SDTM.3.2.QSHI", "clinicalData": {"studyOID": "UpdatedCDISCPILOT.CDISC SDTM.3.2", "metaDataVersionOID": "MDV.UpdatedCDISCPILOT.CDISC SDTM.3.2", "itemGroupData": {"QSHI": {"records": 3302, "name": "QSHI", "label": "Questionnaires", "items": [{"OID": "ITEMGROUPDATASEQ", "name": "ITEMGROUPDATASEQ", "label": "Record identifier", "type": "integer"}, {"OID": "IT.QSHI.STUDYID", "name": "STUDYID", "label": "Study Identifier", "type": "string", "length": 12, "keySequence": 1}, {"OID": "IT.QSHI.DOMAIN", "name": "DOMAIN", "label": "Domain Abbreviation", "type": "string", "length": 2}, {"OID": "IT.QSHI.USUBJID", "name": "USUBJID", "label": "Unique Subject Identifier", "type": "string", "length": 11, "keySequence": 2}, {"OID": "IT.QSHI.QSSEQ", "name": "QSSEQ", "label": "Sequence Number", "type": "integer", "length": 8}, {"OID": "IT.QSHI.QSTESTCD", "name": "QSTESTCD", "label": "Question Short Name", "type": "string", "length": 8, "keySequence": 3}, {"OID": "IT.QSHI.QSTEST", "name": "QSTEST", "label": "Question Name", "type": "string", "length": 40}, {"OID": "IT.QSHI.QSCAT", "name": "QSCAT", "label": "Category of Question", "type": "string", "length": 70}, {"OID": "IT.QSHI.QSSCAT", "name": "QSSCAT", "label": "Subcategory for Question", "type": "string", "length": 26}, {"OID": "IT.QSHI.QSORRES", "name": "QSORRES", "label": "Finding in Original Units", "type": "string", "length": 20}, {"OID": "IT.QSHI.QSORRESU", "name": "QSORRESU", "label": "Original Units", "type": "string", "length": 7}, {"OID": "IT.QSHI.QSSTRESC", "name": "QSSTRESC", "label": "Character Result/Finding in Std Format", "type": "string", "length": 4}, {"OID": "IT.QSHI.QSSTRESN", "name": "QSSTRESN", "label": "Numeric Finding in Standard Units", "type": "integer", "length": 8}, {"OID": "IT.QSHI.QSSTRESU", "name": "QSSTRESU", "label": "Standard Units", "type": "string", "length": 7}, {"OID": "IT.QSHI.QSSTAT", "name": "QSSTAT", "label": "Completion Status", "type": "string", "length": 8}, {"OID": "IT.QSHI.QSREASND", "name": "QSREASND", "label": "Reason Not Performed", "type": "string", "length": 17}, {"OID": "IT.QSHI.QSBLFL", "name": "QSBLFL", "label": "Baseline Flag", "type": "string", "length": 1}, {"OID": "IT.QSHI.QSDRVFL", "name": "QSDRVFL", "label": "Derived Flag", "type": "string", "length": 1}, {"OID": "IT.QSHI.VISITNUM", "name": "VISITNUM", "label": "Visit Number", "type": "float", "length": 8, "keySequence": 4}, {"OID": "IT.QSHI.VISIT", "name": "VISIT", "label": "Visit Name", "type": "string", "length": 19}, {"OID": "IT.QSHI.VISITDY", "name": "VISITDY", "label": "Planned Study Day of Visit", "type": "integer", "length": 8}, {"OID": "IT.QSHI.EPOCH", "name": "EPOCH", "label": "Epoch", "type": "string", "length": 9}, {"OID": "IT.QSHI.QSDTC", "name": "QSDTC", "label": "Date/Time of Finding", "type": "string", "length": 10}, {"OID": "IT.QSHI.QSDY", "name": "QSDY", "label": "Study Day of Finding", "type": "integer", "length": 8}], "itemData": [[1, "CDISCPILOT01", "QS", "01-701-1015", 1001, "MHITM01", "ABRUPT ONSET", "MHIS-NACC", "", "ABSENT", "", "0", 0, "", "", "", "", "", 1.0, "SCREENING 1", -7, "TREATMENT", "2013-12-26", -7], [2, "CDISCPILOT01", "QS", "01-701-1015", 1002, "MHITM02", "STEPWISE DETERIORATION", "MHIS-NACC", "", "ABSENT", "", "0", 0, "", "", "", "", "", 1.0, "SCREENING 1", -7, "TREATMENT", "2013-12-26", -7], [3, "CDISCPILOT01", "QS", "01-701-1015", 1003, "MHITM03", "FLUCTUATING COURSE", "MHIS-NACC", "", "ABSENT", "", "0", 0, "", "", "", "", "", 1.0, "SCREENING 1", -7, "TREATMENT", "2013-12-26", -7], [4, "CDISCPILOT01", "QS", "01-701-1015", 1004, "MHITM04", "NOCTURNAL CONFUSION", "MHIS-NACC", "", "ABSENT", "", "0", 0, "", "", "", "", "", 1.0, "SCREENING 1", -7, "TREATMENT", "2013-12-26", -7], [5, "CDISCPILOT01", "QS", "01-701-1015", 1005, "MHITM05", "RELATIVE PRESERVATION OF PERSONALITY", "MHIS-NACC", "", "ABSENT", "", "0", 0, "", "", "", "", "", 1.0, "SCREENING 1", -7, "TREATMENT", "2013-12-26", -7], [6, "CDISCPILOT01", "QS", "01-701-1015", 1006, "MHITM06", "DEPRESSION", "MHIS-NACC", "", "ABSENT", "", "0", 0, "", "", "", "", "", 1.0, "SCREENING 1", -7, "TREATMENT", "2013-12-26", -7], [7, "CDISCPILOT01", "QS", "01-701-1015", 1007, "MHITM07", "SOMATIC COMPLAINTS", "MHIS-NACC", "", "PRESENT", "", "1", 1, "", "", "", "", "", 1.0, "SCREENING 1", -7, "TREATMENT", "2013-12-26", -7], [8, "CDISCPILOT01", "QS", "01-701-1015", 1008, "MHITM08", "EMOTIONAL INCONTINENCE", "MHIS-NACC", "", "ABSENT", "", "0", 0, "", "", "", "", "", 1.0, "SCREENING 1", -7, "TREATMENT", "2013-12-26", -7], [9, "CDISCPILOT01", "QS", "01-701-1015", 1009, "MHITM09", "HISTORY OF HYPERTENSION", "MHIS-NACC", "", "ABSENT", "", "0", 0, "", "", "", "", "", 1.0, "SCREENING 1", -7, "TREATMENT", "2013-12-26", -7], [10, "CDISCPILOT01", "QS", "01-701-1015", 1010, "MHITM10", "HISTORY OF STROKES", "MHIS-NACC", "", "ABSENT", "", "0", 0, "", "", "", "", "", 1.0, "SCREENING 1", -7, "TREATMENT", "2013-12-26", -7], [11, "CDISCPILOT01", "QS", "01-701-1015", 1011, "MHITM11", "EVIDENCE OF ASSOCIATED ATHEROSCLEROSIS", "MHIS-NACC", "", "ABSENT", "", "0", 0, "", "", "", "", "", 1.0, "SCREENING 1", -7, "TREATMENT", "2013-12-26", -7], [12, "CDISCPILOT01", "QS", "01-701-1015", 1012, "MHITM12", "FOCAL NEUROLOGICAL SYMPTOMS", "MHIS-NACC", "", "ABSENT", "", "0", 0, "", "", "", "", "", 1.0, "SCREENING 1", -7, "TREATMENT", "2013-12-26", -7], [13, "CDISCPILOT01", "QS", "01-701-1015", 1013, "MHITM13", "FOCAL NEUROLOGICAL SIGNS", "MHIS-NACC", "", "ABSENT", "", "0", 0, "", "", "", "", "", 1.0, "SCREENING 1", -7, "TREATMENT", "2013-12-26", -7], [14, "CDISCPILOT01", "QS", "01-701-1023", 1001, "MHITM01", "ABRUPT ONSET", "MHIS-NACC", "", "ABSENT", "", "0", 0, "", "", "", "", "", 1.0, "SCREENING 1", -7, "TREATMENT", "2012-07-22", -14], [15, "CDISCPILOT01", "QS", "01-701-1023", 1002, "MHITM02", "STEPWISE DETERIORATION", "MHIS-NACC", "", "ABSENT", "", "0", 0, "", "", "", "", "", 1.0, "SCREENING 1", -7, "TREATMENT", "2012-07-22", -14], [16, "CDISCPILOT01", "QS", "01-701-1023", 1003, "MHITM03", "FLUCTUATING COURSE", "MHIS-NACC", "", "ABSENT", "", "0", 0, "", "", "", "", "", 1.0, "SCREENING 1", -7, "TREATMENT", "2012-07-22", -14], [17, "CDISCPILOT01", "QS", "01-701-1023", 1004, "MHITM04", "NOCTURNAL CONFUSION", "MHIS-NACC", "", "ABSENT", "", "0", 0, "", "", "", "", "", 1.0, "SCREENING 1", -7, "TREATMENT", "2012-07-22", -14], [18, "CDISCPILOT01", "QS", "01-701-1023", 1005, "MHITM05", "RELATIVE PRESERVATION OF PERSONALITY", "MHIS-NACC", "", "ABSENT", "", "0", 0, "", "", "", "", "", 1.0, "SCREENING 1", -7, "TREATMENT", "2012-07-22", -14], [19, "CDISCPILOT01", "QS", "01-701-1023", 1006, "MHITM06", "DEPRESSION", "MHIS-NACC", "", "ABSENT", "", "0", 0, "", "", "", "", "", 1.0, "SCREENING 1", -7, "TREATMENT", "2012-07-22", -14], [20, "CDISCPILOT01", "QS", "01-701-1023", 1007, "MHITM07", "SOMATIC COMPLAINTS", "MHIS-NACC", "", "PRESENT", "", "1", 1, "", "", "", "", "", 1.0, "SCREENING 1", -7, "TREATMENT", "2012-07-22", -14], [21, "CDISCPILOT01", "QS", "01-701-1023", 1008, "MHITM08", "EMOTIONAL INCONTINENCE", "MHIS-NACC", "", "ABSENT", "", "0", 0, "", "", "", "", "", 1.0, "SCREENING 1", -7, "TREATMENT", "2012-07-22", -14], [22, "CDISCPILOT01", "QS", "01-701-1023", 1009, "MHITM09", "HISTORY OF HYPERTENSION", "MHIS-NACC", "", "ABSENT", "", "0", 0, "", "", "", "", "", 1.0, "SCREENING 1", -7, "TREATMENT", "2012-07-22", -14], [23, "CDISCPILOT01", "QS", "01-701-1023", 1010, "MHITM10", "HISTORY OF STROKES", "MHIS-NACC", "", "ABSENT", "", "0", 0, "", "", "", "", "", 1.0, "SCREENING 1", -7, "TREATMENT", "2012-07-22", -14], [24, "CDISCPILOT01", "QS", "01-701-1023", 1011, "MHITM11", "EVIDENCE OF ASSOCIATED ATHEROSCLEROSIS", "MHIS-NACC", "", "ABSENT", "", "0", 0, "", "", "", "", "", 1.0, "SCREENING 1", -7, "TREATMENT", "2012-07-22", -14], [25, "CDISCPILOT01", "QS", "01-701-1023", 1012, "MHITM12", "FOCAL NEUROLOGICAL SYMPTOMS", "MHIS-NACC", "", "ABSENT", "", "0", 0, "", "", "", "", "", 1.0, "SCREENING 1", -7, "TREATMENT", "2012-07-22", -14], [26, "CDISCPILOT01", "QS", "01-701-1023", 1013, "MHITM13", "FOCAL NEUROLOGICAL SIGNS", "MHIS-NACC", "", "ABSENT", "", "0", 0, "", "", "", "", "", 1.0, "SCREENING 1", -7, "TREATMENT", "2012-07-22", -14], [27, "CDISCPILOT01", "QS", "01-701-1028", 1001, "MHITM01", "ABRUPT ONSET", "MHIS-NACC", "", "ABSENT", "", "0", 0, "", "", "", "", "", 1.0, "SCREENING 1", -7, "TREATMENT", "2013-07-11", -8], [28, "CDISCPILOT01", "QS", "01-701-1028", 1002, "MHITM02", "STEPWISE DETERIORATION", "MHIS-NACC", "", "ABSENT", "", "0", 0, "", "", "", "", "", 1.0, "SCREENING 1", -7, "TREATMENT", "2013-07-11", -8], [29, "CDISCPILOT01", "QS", "01-701-1028", 1003, "MHITM03", "FLUCTUATING COURSE", "MHIS-NACC", "", "ABSENT", "", "0", 0, "", "", "", "", "", 1.0, "SCREENING 1", -7, "TREATMENT", "2013-07-11", -8], [30, "CDISCPILOT01", "QS", "01-701-1028", 1004, "MHITM04", "NOCTURNAL CONFUSION", "MHIS-NACC", "", "ABSENT", "", "0", 0, "", "", "", "", "", 1.0, "SCREENING 1", -7, "TREATMENT", "2013-07-11", -8], [31, "CDISCPILOT01", "QS", "01-701-1028", 1005, "MHITM05", "RELATIVE PRESERVATION OF PERSONALITY", "MHIS-NACC", "", "ABSENT", "", "0", 0, "", "", "", "", "", 1.0, "SCREENING 1", -7, "TREATMENT", "2013-07-11", -8], [32, "CDISCPILOT01", "QS", "01-701-1028", 1006, "MHITM06", "DEPRESSION", "MHIS-NACC", "", "ABSENT", "", "0", 0, "", "", "", "", "", 1.0, "SCREENING 1", -7, "TREATMENT", "2013-07-11", -8], [33, "CDISCPILOT01", "QS", "01-701-1028", 1007, "MHITM07", "SOMATIC COMPLAINTS", "MHIS-NACC", "", "ABSENT", "", "0", 0, "", "", "", "", "", 1.0, "SCREENING 1", -7, "TREATMENT", "2013-07-11", -8], [34, "CDISCPILOT01", "QS", "01-701-1028", 1008, "MHITM08", "EMOTIONAL INCONTINENCE", "MHIS-NACC", "", "ABSENT", "", "0", 0, "", "", "", "", "", 1.0, "SCREENING 1", -7, "TREATMENT", "2013-07-11", -8], [35, "CDISCPILOT01", "QS", "01-701-1028", 1009, "MHITM09", "HISTORY OF HYPERTENSION", "MHIS-NACC", "", "ABSENT", "", "0", 0, "", "", "", "", "", 1.0, "SCREENING 1", -7, "TREATMENT", "2013-07-11", -8], [36, "CDISCPILOT01", "QS", "01-701-1028", 1010, "MHITM10", "HISTORY OF STROKES", "MHIS-NACC", "", "ABSENT", "", "0", 0, "", "", "", "", "", 1.0, "SCREENING 1", -7, "TREATMENT", "2013-07-11", -8], [37, "CDISCPILOT01", "QS", "01-701-1028", 1011, "MHITM11", "EVIDENCE OF ASSOCIATED ATHEROSCLEROSIS", "MHIS-NACC", "", "ABSENT", "", "0", 0, "", "", "", "", "", 1.0, "SCREENING 1", -7, "TREATMENT", "2013-07-11", -8], [38, "CDISCPILOT01", "QS", "01-701-1028", 1012, "MHITM12", "FOCAL NEUROLOGICAL SYMPTOMS", "MHIS-NACC", "", "ABSENT", "", "0", 0, "", "", "", "", "", 1.0, "SCREENING 1", -7, "TREATMENT", "2013-07-11", -8], [39, "CDISCPILOT01", "QS", "01-701-1028", 1013, "MHITM13", "FOCAL NEUROLOGICAL SIGNS", "MHIS-NACC", "", "ABSENT", "", "0", 0, "", "", "", "", "", 1.0, "SCREENING 1", -7, "TREATMENT", "2013-07-11", -8], [40, "CDISCPILOT01", "QS", "01-701-1033", 1001, "MHITM01", "ABRUPT ONSET", "MHIS-NACC", "", "ABSENT", "", "0", 0, "", "", "", "", "", 1.0, "SCREENING 1", -7, "TREATMENT", "2014-03-10", -8], [41, "CDISCPILOT01", "QS", "01-701-1033", 1002, "MHITM02", "STEPWISE DETERIORATION", "MHIS-NACC", "", "ABSENT", "", "0", 0, "", "", "", "", "", 1.0, "SCREENING 1", -7, "TREATMENT", "2014-03-10", -8], [42, "CDISCPILOT01", "QS", "01-701-1033", 1003, "MHITM03", "FLUCTUATING COURSE", "MHIS-NACC", "", "ABSENT", "", "0", 0, "", "", "", "", "", 1.0, "SCREENING 1", -7, "TREATMENT", "2014-03-10", -8], [43, "CDISCPILOT01", "QS", "01-701-1033", 1004, "MHITM04", "NOCTURNAL CONFUSION", "MHIS-NACC", "", "ABSENT", "", "0", 0, "", "", "", "", "", 1.0, "SCREENING 1", -7, "TREATMENT", "2014-03-10", -8], [44, "CDISCPILOT01", "QS", "01-701-1033", 1005, "MHITM05", "RELATIVE PRESERVATION OF PERSONALITY", "MHIS-NACC", "", "ABSENT", "", "0", 0, "", "", "", "", "", 1.0, "SCREENING 1", -7, "TREATMENT", "2014-03-10", -8], [45, "CDISCPILOT01", "QS", "01-701-1033", 1006, "MHITM06", "DEPRESSION", "MHIS-NACC", "", "ABSENT", "", "0", 0, "", "", "", "", "", 1.0, "SCREENING 1", -7, "TREATMENT", "2014-03-10", -8], [46, "CDISCPILOT01", "QS", "01-701-1033", 1007, "MHITM07", "SOMATIC COMPLAINTS", "MHIS-NACC", "", "ABSENT", "", "0", 0, "", "", "", "", "", 1.0, "SCREENING 1", -7, "TREATMENT", "2014-03-10", -8], [47, "CDISCPILOT01", "QS", "01-701-1033", 1008, "MHITM08", "EMOTIONAL INCONTINENCE", "MHIS-NACC", "", "ABSENT", "", "0", 0, "", "", "", "", "", 1.0, "SCREENING 1", -7, "TREATMENT", "2014-03-10", -8], [48, "CDISCPILOT01", "QS", "01-701-1033", 1009, "MHITM09", "HISTORY OF HYPERTENSION", "MHIS-NACC", "", "ABSENT", "", "0", 0, "", "", "", "", "", 1.0, "SCREENING 1", -7, "TREATMENT", "2014-03-10", -8], [49, "CDISCPILOT01", "QS", "01-701-1033", 1010, "MHITM10", "HISTORY OF STROKES", "MHIS-NACC", "", "ABSENT", "", "0", 0, "", "", "", "", "", 1.0, "SCREENING 1", -7, "TREATMENT", "2014-03-10", -8], [50, "CDISCPILOT01", "QS", "01-701-1033", 1011, "MHITM11", "EVIDENCE OF ASSOCIATED ATHEROSCLEROSIS", "MHIS-NACC", "", "ABSENT", "", "0", 0, "", "", "", "", "", 1.0, "SCREENING 1", -7, "TREATMENT", "2014-03-10", -8], [51, "CDISCPILOT01", "QS", "01-701-1033", 1012, "MHITM12", "FOCAL NEUROLOGICAL SYMPTOMS", "MHIS-NACC", "", "ABSENT", "", "0", 0, "", "", "", "", "", 1.0, "SCREENING 1", -7, "TREATMENT", "2014-03-10", -8], [52, "CDISCPILOT01", "QS", "01-701-1033", 1013, "MHITM13", "FOCAL NEUROLOGICAL SIGNS", "MHIS-NACC", "", "ABSENT", "", "0", 0, "", "", "", "", "", 1.0, "SCREENING 1", -7, "TREATMENT", "2014-03-10", -8], [53, "CDISCPILOT01", "QS", "01-701-1034", 1001, "MHITM01", "ABRUPT ONSET", "MHIS-NACC", "", "ABSENT", "", "0", 0, "", "", "", "", "", 1.0, "SCREENING 1", -7, "TREATMENT", "2014-06-24", -7], [54, "CDISCPILOT01", "QS", "01-701-1034", 1002, "MHITM02", "STEPWISE DETERIORATION", "MHIS-NACC", "", "ABSENT", "", "0", 0, "", "", "", "", "", 1.0, "SCREENING 1", -7, "TREATMENT", "2014-06-24", -7], [55, "CDISCPILOT01", "QS", "01-701-1034", 1003, "MHITM03", "FLUCTUATING COURSE", "MHIS-NACC", "", "ABSENT", "", "0", 0, "", "", "", "", "", 1.0, "SCREENING 1", -7, "TREATMENT", "2014-06-24", -7], [56, "CDISCPILOT01", "QS", "01-701-1034", 1004, "MHITM04", "NOCTURNAL CONFUSION", "MHIS-NACC", "", "ABSENT", "", "0", 0, "", "", "", "", "", 1.0, "SCREENING 1", -7, "TREATMENT", "2014-06-24", -7], [57, "CDISCPILOT01", "QS", "01-701-1034", 1005, "MHITM05", "RELATIVE PRESERVATION OF PERSONALITY", "MHIS-NACC", "", "ABSENT", "", "0", 0, "", "", "", "", "", 1.0, "SCREENING 1", -7, "TREATMENT", "2014-06-24", -7], [58, "CDISCPILOT01", "QS", "01-701-1034", 1006, "MHITM06", "DEPRESSION", "MHIS-NACC", "", "ABSENT", "", "0", 0, "", "", "", "", "", 1.0, "SCREENING 1", -7, "TREATMENT", "2014-06-24", -7], [59, "CDISCPILOT01", "QS", "01-701-1034", 1007, "MHITM07", "SOMATIC COMPLAINTS", "MHIS-NACC", "", "ABSENT", "", "0", 0, "", "", "", "", "", 1.0, "SCREENING 1", -7, "TREATMENT", "2014-06-24", -7], [60, "CDISCPILOT01", "QS", "01-701-1034", 1008, "MHITM08", "EMOTIONAL INCONTINENCE", "MHIS-NACC", "", "ABSENT", "", "0", 0, "", "", "", "", "", 1.0, "SCREENING 1", -7, "TREATMENT", "2014-06-24", -7], [61, "CDISCPILOT01", "QS", "01-701-1034", 1009, "MHITM09", "HISTORY OF HYPERTENSION", "MHIS-NACC", "", "ABSENT", "", "0", 0, "", "", "", "", "", 1.0, "SCREENING 1", -7, "TREATMENT", "2014-06-24", -7], [62, "CDISCPILOT01", "QS", "01-701-1034", 1010, "MHITM10", "HISTORY OF STROKES", "MHIS-NACC", "", "ABSENT", "", "0", 0, "", "", "", "", "", 1.0, "SCREENING 1", -7, "TREATMENT", "2014-06-24", -7], [63, "CDISCPILOT01", "QS", "01-701-1034", 1011, "MHITM11", "EVIDENCE OF ASSOCIATED ATHEROSCLEROSIS", "MHIS-NACC", "", "ABSENT", "", "0", 0, "", "", "", "", "", 1.0, "SCREENING 1", -7, "TREATMENT", "2014-06-24", -7], [64, "CDISCPILOT01", "QS", "01-701-1034", 1012, "MHITM12", "FOCAL NEUROLOGICAL SYMPTOMS", "MHIS-NACC", "", "ABSENT", "", "0", 0, "", "", "", "", "", 1.0, "SCREENING 1", -7, "TREATMENT", "2014-06-24", -7], [65, "CDISCPILOT01", "QS", "01-701-1034", 1013, "MHITM13", "FOCAL NEUROLOGICAL SIGNS", "MHIS-NACC", "", "ABSENT", "", "0", 0, "", "", "", "", "", 1.0, "SCREENING 1", -7, "TREATMENT", "2014-06-24", -7], [66, "CDISCPILOT01", "QS", "01-701-1047", 1001, "MHITM01", "ABRUPT ONSET", "MHIS-NACC", "", "ABSENT", "", "0", 0, "", "", "", "", "", 1.0, "SCREENING 1", -7, "TREATMENT", "2013-01-22", -21], [67, "CDISCPILOT01", "QS", "01-701-1047", 1002, "MHITM02", "STEPWISE DETERIORATION", "MHIS-NACC", "", "ABSENT", "", "0", 0, "", "", "", "", "", 1.0, "SCREENING 1", -7, "TREATMENT", "2013-01-22", -21], [68, "CDISCPILOT01", "QS", "01-701-1047", 1003, "MHITM03", "FLUCTUATING COURSE", "MHIS-NACC", "", "ABSENT", "", "0", 0, "", "", "", "", "", 1.0, "SCREENING 1", -7, "TREATMENT", "2013-01-22", -21], [69, "CDISCPILOT01", "QS", "01-701-1047", 1004, "MHITM04", "NOCTURNAL CONFUSION", "MHIS-NACC", "", "ABSENT", "", "0", 0, "", "", "", "", "", 1.0, "SCREENING 1", -7, "TREATMENT", "2013-01-22", -21], [70, "CDISCPILOT01", "QS", "01-701-1047", 1005, "MHITM05", "RELATIVE PRESERVATION OF PERSONALITY", "MHIS-NACC", "", "ABSENT", "", "0", 0, "", "", "", "", "", 1.0, "SCREENING 1", -7, "TREATMENT", "2013-01-22", -21], [71, "CDISCPILOT01", "QS", "01-701-1047", 1006, "MHITM06", "DEPRESSION", "MHIS-NACC", "", "ABSENT", "", "0", 0, "", "", "", "", "", 1.0, "SCREENING 1", -7, "TREATMENT", "2013-01-22", -21], [72, "CDISCPILOT01", "QS", "01-701-1047", 1007, "MHITM07", "SOMATIC COMPLAINTS", "MHIS-NACC", "", "ABSENT", "", "0", 0, "", "", "", "", "", 1.0, "SCREENING 1", -7, "TREATMENT", "2013-01-22", -21], [73, "CDISCPILOT01", "QS", "01-701-1047", 1008, "MHITM08", "EMOTIONAL INCONTINENCE", "MHIS-NACC", "", "ABSENT", "", "0", 0, "", "", "", "", "", 1.0, "SCREENING 1", -7, "TREATMENT", "2013-01-22", -21], [74, "CDISCPILOT01", "QS", "01-701-1047", 1009, "MHITM09", "HISTORY OF HYPERTENSION", "MHIS-NACC", "", "ABSENT", "", "0", 0, "", "", "", "", "", 1.0, "SCREENING 1", -7, "TREATMENT", "2013-01-22", -21], [75, "CDISCPILOT01", "QS", "01-701-1047", 1010, "MHITM10", "HISTORY OF STROKES", "MHIS-NACC", "", "ABSENT", "", "0", 0, "", "", "", "", "", 1.0, "SCREENING 1", -7, "TREATMENT", "2013-01-22", -21], [76, "CDISCPILOT01", "QS", "01-701-1047", 1011, "MHITM11", "EVIDENCE OF ASSOCIATED ATHEROSCLEROSIS", "MHIS-NACC", "", "ABSENT", "", "0", 0, "", "", "", "", "", 1.0, "SCREENING 1", -7, "TREATMENT", "2013-01-22", -21], [77, "CDISCPILOT01", "QS", "01-701-1047", 1012, "MHITM12", "FOCAL NEUROLOGICAL SYMPTOMS", "MHIS-NACC", "", "ABSENT", "", "0", 0, "", "", "", "", "", 1.0, "SCREENING 1", -7, "TREATMENT", "2013-01-22", -21], [78, "CDISCPILOT01", "QS", "01-701-1047", 1013, "MHITM13", "FOCAL NEUROLOGICAL SIGNS", "MHIS-NACC", "", "ABSENT", "", "0", 0, "", "", "", "", "", 1.0, "SCREENING 1", -7, "TREATMENT", "2013-01-22", -21], [79, "CDISCPILOT01", "QS", "01-701-1097", 1001, "MHITM01", "ABRUPT ONSET", "MHIS-NACC", "", "ABSENT", "", "0", 0, "", "", "", "", "", 1.0, "SCREENING 1", -7, "TREATMENT", "2013-12-23", -9], [80, "CDISCPILOT01", "QS", "01-701-1097", 1002, "MHITM02", "STEPWISE DETERIORATION", "MHIS-NACC", "", "ABSENT", "", "0", 0, "", "", "", "", "", 1.0, "SCREENING 1", -7, "TREATMENT", "2013-12-23", -9], [81, "CDISCPILOT01", "QS", "01-701-1097", 1003, "MHITM03", "FLUCTUATING COURSE", "MHIS-NACC", "", "ABSENT", "", "0", 0, "", "", "", "", "", 1.0, "SCREENING 1", -7, "TREATMENT", "2013-12-23", -9], [82, "CDISCPILOT01", "QS", "01-701-1097", 1004, "MHITM04", "NOCTURNAL CONFUSION", "MHIS-NACC", "", "ABSENT", "", "0", 0, "", "", "", "", "", 1.0, "SCREENING 1", -7, "TREATMENT", "2013-12-23", -9], [83, "CDISCPILOT01", "QS", "01-701-1097", 1005, "MHITM05", "RELATIVE PRESERVATION OF PERSONALITY", "MHIS-NACC", "", "PRESENT", "", "1", 1, "", "", "", "", "", 1.0, "SCREENING 1", -7, "TREATMENT", "2013-12-23", -9], [84, "CDISCPILOT01", "QS", "01-701-1097", 1006, "MHITM06", "DEPRESSION", "MHIS-NACC", "", "ABSENT", "", "0", 0, "", "", "", "", "", 1.0, "SCREENING 1", -7, "TREATMENT", "2013-12-23", -9], [85, "CDISCPILOT01", "QS", "01-701-1097", 1007, "MHITM07", "SOMATIC COMPLAINTS", "MHIS-NACC", "", "ABSENT", "", "0", 0, "", "", "", "", "", 1.0, "SCREENING 1", -7, "TREATMENT", "2013-12-23", -9], [86, "CDISCPILOT01", "QS", "01-701-1097", 1008, "MHITM08", "EMOTIONAL INCONTINENCE", "MHIS-NACC", "", "ABSENT", "", "0", 0, "", "", "", "", "", 1.0, "SCREENING 1", -7, "TREATMENT", "2013-12-23", -9], [87, "CDISCPILOT01", "QS", "01-701-1097", 1009, "MHITM09", "HISTORY OF HYPERTENSION", "MHIS-NACC", "", "ABSENT", "", "0", 0, "", "", "", "", "", 1.0, "SCREENING 1", -7, "TREATMENT", "2013-12-23", -9], [88, "CDISCPILOT01", "QS", "01-701-1097", 1010, "MHITM10", "HISTORY OF STROKES", "MHIS-NACC", "", "ABSENT", "", "0", 0, "", "", "", "", "", 1.0, "SCREENING 1", -7, "TREATMENT", "2013-12-23", -9], [89, "CDISCPILOT01", "QS", "01-701-1097", 1011, "MHITM11", "EVIDENCE OF ASSOCIATED ATHEROSCLEROSIS", "MHIS-NACC", "", "ABSENT", "", "0", 0, "", "", "", "", "", 1.0, "SCREENING 1", -7, "TREATMENT", "2013-12-23", -9], [90, "CDISCPILOT01", "QS", "01-701-1097", 1012, "MHITM12", "FOCAL NEUROLOGICAL SYMPTOMS", "MHIS-NACC", "", "ABSENT", "", "0", 0, "", "", "", "", "", 1.0, "SCREENING 1", -7, "TREATMENT", "2013-12-23", -9], [91, "CDISCPILOT01", "QS", "01-701-1097", 1013, "MHITM13", "FOCAL NEUROLOGICAL SIGNS", "MHIS-NACC", "", "ABSENT", "", "0", 0, "", "", "", "", "", 1.0, "SCREENING 1", -7, "TREATMENT", "2013-12-23", -9], [92, "CDISCPILOT01", "QS", "01-701-1111", 1001, "MHITM01", "ABRUPT ONSET", "MHIS-NACC", "", "ABSENT", "", "0", 0, "", "", "", "", "", 1.0, "SCREENING 1", -7, "TREATMENT", "2012-08-25", -13], [93, "CDISCPILOT01", "QS", "01-701-1111", 1002, "MHITM02", "STEPWISE DETERIORATION", "MHIS-NACC", "", "ABSENT", "", "0", 0, "", "", "", "", "", 1.0, "SCREENING 1", -7, "TREATMENT", "2012-08-25", -13], [94, "CDISCPILOT01", "QS", "01-701-1111", 1003, "MHITM03", "FLUCTUATING COURSE", "MHIS-NACC", "", "ABSENT", "", "0", 0, "", "", "", "", "", 1.0, "SCREENING 1", -7, "TREATMENT", "2012-08-25", -13], [95, "CDISCPILOT01", "QS", "01-701-1111", 1004, "MHITM04", "NOCTURNAL CONFUSION", "MHIS-NACC", "", "ABSENT", "", "0", 0, "", "", "", "", "", 1.0, "SCREENING 1", -7, "TREATMENT", "2012-08-25", -13], [96, "CDISCPILOT01", "QS", "01-701-1111", 1005, "MHITM05", "RELATIVE PRESERVATION OF PERSONALITY", "MHIS-NACC", "", "ABSENT", "", "0", 0, "", "", "", "", "", 1.0, "SCREENING 1", -7, "TREATMENT", "2012-08-25", -13], [97, "CDISCPILOT01", "QS", "01-701-1111", 1006, "MHITM06", "DEPRESSION", "MHIS-NACC", "", "ABSENT", "", "0", 0, "", "", "", "", "", 1.0, "SCREENING 1", -7, "TREATMENT", "2012-08-25", -13], [98, "CDISCPILOT01", "QS", "01-701-1111", 1007, "MHITM07", "SOMATIC COMPLAINTS", "MHIS-NACC", "", "ABSENT", "", "0", 0, "", "", "", "", "", 1.0, "SCREENING 1", -7, "TREATMENT", "2012-08-25", -13], [99, "CDISCPILOT01", "QS", "01-701-1111", 1008, "MHITM08", "EMOTIONAL INCONTINENCE", "MHIS-NACC", "", "ABSENT", "", "0", 0, "", "", "", "", "", 1.0, "SCREENING 1", -7, "TREATMENT", "2012-08-25", -13], [100, "CDISCPILOT01", "QS", "01-701-1111", 1009, "MHITM09", "HISTORY OF HYPERTENSION", "MHIS-NACC", "", "PRESENT", "", "1", 1, "", "", "", "", "", 1.0, "SCREENING 1", -7, "TREATMENT", "2012-08-25", -13], [101, "CDISCPILOT01", "QS", "01-701-1111", 1010, "MHITM10", "HISTORY OF STROKES", "MHIS-NACC", "", "ABSENT", "", "0", 0, "", "", "", "", "", 1.0, "SCREENING 1", -7, "TREATMENT", "2012-08-25", -13], [102, "CDISCPILOT01", "QS", "01-701-1111", 1011, "MHITM11", "EVIDENCE OF ASSOCIATED ATHEROSCLEROSIS", "MHIS-NACC", "", "ABSENT", "", "0", 0, "", "", "", "", "", 1.0, "SCREENING 1", -7, "TREATMENT", "2012-08-25", -13], [103, "CDISCPILOT01", "QS", "01-701-1111", 1012, "MHITM12", "FOCAL NEUROLOGICAL SYMPTOMS", "MHIS-NACC", "", "ABSENT", "", "0", 0, "", "", "", "", "", 1.0, "SCREENING 1", -7, "TREATMENT", "2012-08-25", -13], [104, "CDISCPILOT01", "QS", "01-701-1111", 1013, "MHITM13", "FOCAL NEUROLOGICAL SIGNS", "MHIS-NACC", "", "ABSENT", "", "0", 0, "", "", "", "", "", 1.0, "SCREENING 1", -7, "TREATMENT", "2012-08-25", -13], [105, "CDISCPILOT01", "QS", "01-701-1115", 1001, "MHITM01", "ABRUPT ONSET", "MHIS-NACC", "", "ABSENT", "", "0", 0, "", "", "", "", "", 1.0, "SCREENING 1", -7, "TREATMENT", "2012-11-23", -7], [106, "CDISCPILOT01", "QS", "01-701-1115", 1002, "MHITM02", "STEPWISE DETERIORATION", "MHIS-NACC", "", "ABSENT", "", "0", 0, "", "", "", "", "", 1.0, "SCREENING 1", -7, "TREATMENT", "2012-11-23", -7], [107, "CDISCPILOT01", "QS", "01-701-1115", 1003, "MHITM03", "FLUCTUATING COURSE", "MHIS-NACC", "", "ABSENT", "", "0", 0, "", "", "", "", "", 1.0, "SCREENING 1", -7, "TREATMENT", "2012-11-23", -7], [108, "CDISCPILOT01", "QS", "01-701-1115", 1004, "MHITM04", "NOCTURNAL CONFUSION", "MHIS-NACC", "", "ABSENT", "", "0", 0, "", "", "", "", "", 1.0, "SCREENING 1", -7, "TREATMENT", "2012-11-23", -7], [109, "CDISCPILOT01", "QS", "01-701-1115", 1005, "MHITM05", "RELATIVE PRESERVATION OF PERSONALITY", "MHIS-NACC", "", "ABSENT", "", "0", 0, "", "", "", "", "", 1.0, "SCREENING 1", -7, "TREATMENT", "2012-11-23", -7], [110, "CDISCPILOT01", "QS", "01-701-1115", 1006, "MHITM06", "DEPRESSION", "MHIS-NACC", "", "ABSENT", "", "0", 0, "", "", "", "", "", 1.0, "SCREENING 1", -7, "TREATMENT", "2012-11-23", -7], [111, "CDISCPILOT01", "QS", "01-701-1115", 1007, "MHITM07", "SOMATIC COMPLAINTS", "MHIS-NACC", "", "ABSENT", "", "0", 0, "", "", "", "", "", 1.0, "SCREENING 1", -7, "TREATMENT", "2012-11-23", -7], [112, "CDISCPILOT01", "QS", "01-701-1115", 1008, "MHITM08", "EMOTIONAL INCONTINENCE", "MHIS-NACC", "", "ABSENT", "", "0", 0, "", "", "", "", "", 1.0, "SCREENING 1", -7, "TREATMENT", "2012-11-23", -7], [113, "CDISCPILOT01", "QS", "01-701-1115", 1009, "MHITM09", "HISTORY OF HYPERTENSION", "MHIS-NACC", "", "ABSENT", "", "0", 0, "", "", "", "", "", 1.0, "SCREENING 1", -7, "TREATMENT", "2012-11-23", -7], [114, "CDISCPILOT01", "QS", "01-701-1115", 1010, "MHITM10", "HISTORY OF STROKES", "MHIS-NACC", "", "ABSENT", "", "0", 0, "", "", "", "", "", 1.0, "SCREENING 1", -7, "TREATMENT", "2012-11-23", -7], [115, "CDISCPILOT01", "QS", "01-701-1115", 1011, "MHITM11", "EVIDENCE OF ASSOCIATED ATHEROSCLEROSIS", "MHIS-NACC", "", "ABSENT", "", "0", 0, "", "", "", "", "", 1.0, "SCREENING 1", -7, "TREATMENT", "2012-11-23", -7], [116, "CDISCPILOT01", "QS", "01-701-1115", 1012, "MHITM12", "FOCAL NEUROLOGICAL SYMPTOMS", "MHIS-NACC", "", "ABSENT", "", "0", 0, "", "", "", "", "", 1.0, "SCREENING 1", -7, "TREATMENT", "2012-11-23", -7], [117, "CDISCPILOT01", "QS", "01-701-1115", 1013, "MHITM13", "FOCAL NEUROLOGICAL SIGNS", "MHIS-NACC", "", "ABSENT", "", "0", 0, "", "", "", "", "", 1.0, "SCREENING 1", -7, "TREATMENT", "2012-11-23", -7], [118, "CDISCPILOT01", "QS", "01-701-1118", 1001, "MHITM01", "ABRUPT ONSET", "MHIS-NACC", "", "ABSENT", "", "0", 0, "", "", "", "", "", 1.0, "SCREENING 1", -7, "TREATMENT", "2014-02-27", -13], [119, "CDISCPILOT01", "QS", "01-701-1118", 1002, "MHITM02", "STEPWISE DETERIORATION", "MHIS-NACC", "", "ABSENT", "", "0", 0, "", "", "", "", "", 1.0, "SCREENING 1", -7, "TREATMENT", "2014-02-27", -13], [120, "CDISCPILOT01", "QS", "01-701-1118", 1003, "MHITM03", "FLUCTUATING COURSE", "MHIS-NACC", "", "ABSENT", "", "0", 0, "", "", "", "", "", 1.0, "SCREENING 1", -7, "TREATMENT", "2014-02-27", -13], [121, "CDISCPILOT01", "QS", "01-701-1118", 1004, "MHITM04", "NOCTURNAL CONFUSION", "MHIS-NACC", "", "ABSENT", "", "0", 0, "", "", "", "", "", 1.0, "SCREENING 1", -7, "TREATMENT", "2014-02-27", -13], [122, "CDISCPILOT01", "QS", "01-701-1118", 1005, "MHITM05", "RELATIVE PRESERVATION OF PERSONALITY", "MHIS-NACC", "", "ABSENT", "", "0", 0, "", "", "", "", "", 1.0, "SCREENING 1", -7, "TREATMENT", "2014-02-27", -13], [123, "CDISCPILOT01", "QS", "01-701-1118", 1006, "MHITM06", "DEPRESSION", "MHIS-NACC", "", "ABSENT", "", "0", 0, "", "", "", "", "", 1.0, "SCREENING 1", -7, "TREATMENT", "2014-02-27", -13], [124, "CDISCPILOT01", "QS", "01-701-1118", 1007, "MHITM07", "SOMATIC COMPLAINTS", "MHIS-NACC", "", "PRESENT", "", "1", 1, "", "", "", "", "", 1.0, "SCREENING 1", -7, "TREATMENT", "2014-02-27", -13], [125, "CDISCPILOT01", "QS", "01-701-1118", 1008, "MHITM08", "EMOTIONAL INCONTINENCE", "MHIS-NACC", "", "ABSENT", "", "0", 0, "", "", "", "", "", 1.0, "SCREENING 1", -7, "TREATMENT", "2014-02-27", -13], [126, "CDISCPILOT01", "QS", "01-701-1118", 1009, "MHITM09", "HISTORY OF HYPERTENSION", "MHIS-NACC", "", "ABSENT", "", "0", 0, "", "", "", "", "", 1.0, "SCREENING 1", -7, "TREATMENT", "2014-02-27", -13], [127, "CDISCPILOT01", "QS", "01-701-1118", 1010, "MHITM10", "HISTORY OF STROKES", "MHIS-NACC", "", "ABSENT", "", "0", 0, "", "", "", "", "", 1.0, "SCREENING 1", -7, "TREATMENT", "2014-02-27", -13], [128, "CDISCPILOT01", "QS", "01-701-1118", 1011, "MHITM11", "EVIDENCE OF ASSOCIATED ATHEROSCLEROSIS", "MHIS-NACC", "", "ABSENT", "", "0", 0, "", "", "", "", "", 1.0, "SCREENING 1", -7, "TREATMENT", "2014-02-27", -13], [129, "CDISCPILOT01", "QS", "01-701-1118", 1012, "MHITM12", "FOCAL NEUROLOGICAL SYMPTOMS", "MHIS-NACC", "", "ABSENT", "", "0", 0, "", "", "", "", "", 1.0, "SCREENING 1", -7, "TREATMENT", "2014-02-27", -13], [130, "CDISCPILOT01", "QS", "01-701-1118", 1013, "MHITM13", "FOCAL NEUROLOGICAL SIGNS", "MHIS-NACC", "", "ABSENT", "", "0", 0, "", "", "", "", "", 1.0, "SCREENING 1", -7, "TREATMENT", "2014-02-27", -13], [131, "CDISCPILOT01", "QS", "01-701-1130", 1001, "MHITM01", "ABRUPT ONSET", "MHIS-NACC", "", "ABSENT", "", "0", 0, "", "", "", "", "", 1.0, "SCREENING 1", -7, "TREATMENT", "2014-02-09", -6], [132, "CDISCPILOT01", "QS", "01-701-1130", 1002, "MHITM02", "STEPWISE DETERIORATION", "MHIS-NACC", "", "ABSENT", "", "0", 0, "", "", "", "", "", 1.0, "SCREENING 1", -7, "TREATMENT", "2014-02-09", -6], [133, "CDISCPILOT01", "QS", "01-701-1130", 1003, "MHITM03", "FLUCTUATING COURSE", "MHIS-NACC", "", "ABSENT", "", "0", 0, "", "", "", "", "", 1.0, "SCREENING 1", -7, "TREATMENT", "2014-02-09", -6], [134, "CDISCPILOT01", "QS", "01-701-1130", 1004, "MHITM04", "NOCTURNAL CONFUSION", "MHIS-NACC", "", "ABSENT", "", "0", 0, "", "", "", "", "", 1.0, "SCREENING 1", -7, "TREATMENT", "2014-02-09", -6], [135, "CDISCPILOT01", "QS", "01-701-1130", 1005, "MHITM05", "RELATIVE PRESERVATION OF PERSONALITY", "MHIS-NACC", "", "ABSENT", "", "0", 0, "", "", "", "", "", 1.0, "SCREENING 1", -7, "TREATMENT", "2014-02-09", -6], [136, "CDISCPILOT01", "QS", "01-701-1130", 1006, "MHITM06", "DEPRESSION", "MHIS-NACC", "", "ABSENT", "", "0", 0, "", "", "", "", "", 1.0, "SCREENING 1", -7, "TREATMENT", "2014-02-09", -6], [137, "CDISCPILOT01", "QS", "01-701-1130", 1007, "MHITM07", "SOMATIC COMPLAINTS", "MHIS-NACC", "", "ABSENT", "", "0", 0, "", "", "", "", "", 1.0, "SCREENING 1", -7, "TREATMENT", "2014-02-09", -6], [138, "CDISCPILOT01", "QS", "01-701-1130", 1008, "MHITM08", "EMOTIONAL INCONTINENCE", "MHIS-NACC", "", "ABSENT", "", "0", 0, "", "", "", "", "", 1.0, "SCREENING 1", -7, "TREATMENT", "2014-02-09", -6], [139, "CDISCPILOT01", "QS", "01-701-1130", 1009, "MHITM09", "HISTORY OF HYPERTENSION", "MHIS-NACC", "", "ABSENT", "", "0", 0, "", "", "", "", "", 1.0, "SCREENING 1", -7, "TREATMENT", "2014-02-09", -6], [140, "CDISCPILOT01", "QS", "01-701-1130", 1010, "MHITM10", "HISTORY OF STROKES", "MHIS-NACC", "", "ABSENT", "", "0", 0, "", "", "", "", "", 1.0, "SCREENING 1", -7, "TREATMENT", "2014-02-09", -6], [141, "CDISCPILOT01", "QS", "01-701-1130", 1011, "MHITM11", "EVIDENCE OF ASSOCIATED ATHEROSCLEROSIS", "MHIS-NACC", "", "ABSENT", "", "0", 0, "", "", "", "", "", 1.0, "SCREENING 1", -7, "TREATMENT", "2014-02-09", -6], [142, "CDISCPILOT01", "QS", "01-701-1130", 1012, "MHITM12", "FOCAL NEUROLOGICAL SYMPTOMS", "MHIS-NACC", "", "ABSENT", "", "0", 0, "", "", "", "", "", 1.0, "SCREENING 1", -7, "TREATMENT", "2014-02-09", -6], [143, "CDISCPILOT01", "QS", "01-701-1130", 1013, "MHITM13", "FOCAL NEUROLOGICAL SIGNS", "MHIS-NACC", "", "ABSENT", "", "0", 0, "", "", "", "", "", 1.0, "SCREENING 1", -7, "TREATMENT", "2014-02-09", -6], [144, "CDISCPILOT01", "QS", "01-701-1133", 1001, "MHITM01", "ABRUPT ONSET", "MHIS-NACC", "", "ABSENT", "", "0", 0, "", "", "", "", "", 1.0, "SCREENING 1", -7, "TREATMENT", "2012-10-23", -5], [145, "CDISCPILOT01", "QS", "01-701-1133", 1002, "MHITM02", "STEPWISE DETERIORATION", "MHIS-NACC", "", "ABSENT", "", "0", 0, "", "", "", "", "", 1.0, "SCREENING 1", -7, "TREATMENT", "2012-10-23", -5], [146, "CDISCPILOT01", "QS", "01-701-1133", 1003, "MHITM03", "FLUCTUATING COURSE", "MHIS-NACC", "", "ABSENT", "", "0", 0, "", "", "", "", "", 1.0, "SCREENING 1", -7, "TREATMENT", "2012-10-23", -5], [147, "CDISCPILOT01", "QS", "01-701-1133", 1004, "MHITM04", "NOCTURNAL CONFUSION", "MHIS-NACC", "", "ABSENT", "", "0", 0, "", "", "", "", "", 1.0, "SCREENING 1", -7, "TREATMENT", "2012-10-23", -5], [148, "CDISCPILOT01", "QS", "01-701-1133", 1005, "MHITM05", "RELATIVE PRESERVATION OF PERSONALITY", "MHIS-NACC", "", "ABSENT", "", "0", 0, "", "", "", "", "", 1.0, "SCREENING 1", -7, "TREATMENT", "2012-10-23", -5], [149, "CDISCPILOT01", "QS", "01-701-1133", 1006, "MHITM06", "DEPRESSION", "MHIS-NACC", "", "ABSENT", "", "0", 0, "", "", "", "", "", 1.0, "SCREENING 1", -7, "TREATMENT", "2012-10-23", -5], [150, "CDISCPILOT01", "QS", "01-701-1133", 1007, "MHITM07", "SOMATIC COMPLAINTS", "MHIS-NACC", "", "ABSENT", "", "0", 0, "", "", "", "", "", 1.0, "SCREENING 1", -7, "TREATMENT", "2012-10-23", -5], [151, "CDISCPILOT01", "QS", "01-701-1133", 1008, "MHITM08", "EMOTIONAL INCONTINENCE", "MHIS-NACC", "", "ABSENT", "", "0", 0, "", "", "", "", "", 1.0, "SCREENING 1", -7, "TREATMENT", "2012-10-23", -5], [152, "CDISCPILOT01", "QS", "01-701-1133", 1009, "MHITM09", "HISTORY OF HYPERTENSION", "MHIS-NACC", "", "ABSENT", "", "0", 0, "", "", "", "", "", 1.0, "SCREENING 1", -7, "TREATMENT", "2012-10-23", -5], [153, "CDISCPILOT01", "QS", "01-701-1133", 1010, "MHITM10", "HISTORY OF STROKES", "MHIS-NACC", "", "ABSENT", "", "0", 0, "", "", "", "", "", 1.0, "SCREENING 1", -7, "TREATMENT", "2012-10-23", -5], [154, "CDISCPILOT01", "QS", "01-701-1133", 1011, "MHITM11", "EVIDENCE OF ASSOCIATED ATHEROSCLEROSIS", "MHIS-NACC", "", "ABSENT", "", "0", 0, "", "", "", "", "", 1.0, "SCREENING 1", -7, "TREATMENT", "2012-10-23", -5], [155, "CDISCPILOT01", "QS", "01-701-1133", 1012, "MHITM12", "FOCAL NEUROLOGICAL SYMPTOMS", "MHIS-NACC", "", "ABSENT", "", "0", 0, "", "", "", "", "", 1.0, "SCREENING 1", -7, "TREATMENT", "2012-10-23", -5], [156, "CDISCPILOT01", "QS", "01-701-1133", 1013, "MHITM13", "FOCAL NEUROLOGICAL SIGNS", "MHIS-NACC", "", "ABSENT", "", "0", 0, "", "", "", "", "", 1.0, "SCREENING 1", -7, "TREATMENT", "2012-10-23", -5], [157, "CDISCPILOT01", "QS", "01-701-1146", 1001, "MHITM01", "ABRUPT ONSET", "MHIS-NACC", "", "ABSENT", "", "0", 0, "", "", "", "", "", 1.0, "SCREENING 1", -7, "TREATMENT", "2013-05-07", -13], [158, "CDISCPILOT01", "QS", "01-701-1146", 1002, "MHITM02", "STEPWISE DETERIORATION", "MHIS-NACC", "", "ABSENT", "", "0", 0, "", "", "", "", "", 1.0, "SCREENING 1", -7, "TREATMENT", "2013-05-07", -13], [159, "CDISCPILOT01", "QS", "01-701-1146", 1003, "MHITM03", "FLUCTUATING COURSE", "MHIS-NACC", "", "ABSENT", "", "0", 0, "", "", "", "", "", 1.0, "SCREENING 1", -7, "TREATMENT", "2013-05-07", -13], [160, "CDISCPILOT01", "QS", "01-701-1146", 1004, "MHITM04", "NOCTURNAL CONFUSION", "MHIS-NACC", "", "ABSENT", "", "0", 0, "", "", "", "", "", 1.0, "SCREENING 1", -7, "TREATMENT", "2013-05-07", -13], [161, "CDISCPILOT01", "QS", "01-701-1146", 1005, "MHITM05", "RELATIVE PRESERVATION OF PERSONALITY", "MHIS-NACC", "", "ABSENT", "", "0", 0, "", "", "", "", "", 1.0, "SCREENING 1", -7, "TREATMENT", "2013-05-07", -13], [162, "CDISCPILOT01", "QS", "01-701-1146", 1006, "MHITM06", "DEPRESSION", "MHIS-NACC", "", "PRESENT", "", "1", 1, "", "", "", "", "", 1.0, "SCREENING 1", -7, "TREATMENT", "2013-05-07", -13], [163, "CDISCPILOT01", "QS", "01-701-1146", 1007, "MHITM07", "SOMATIC COMPLAINTS", "MHIS-NACC", "", "ABSENT", "", "0", 0, "", "", "", "", "", 1.0, "SCREENING 1", -7, "TREATMENT", "2013-05-07", -13], [164, "CDISCPILOT01", "QS", "01-701-1146", 1008, "MHITM08", "EMOTIONAL INCONTINENCE", "MHIS-NACC", "", "ABSENT", "", "0", 0, "", "", "", "", "", 1.0, "SCREENING 1", -7, "TREATMENT", "2013-05-07", -13], [165, "CDISCPILOT01", "QS", "01-701-1146", 1009, "MHITM09", "HISTORY OF HYPERTENSION", "MHIS-NACC", "", "ABSENT", "", "0", 0, "", "", "", "", "", 1.0, "SCREENING 1", -7, "TREATMENT", "2013-05-07", -13], [166, "CDISCPILOT01", "QS", "01-701-1146", 1010, "MHITM10", "HISTORY OF STROKES", "MHIS-NACC", "", "ABSENT", "", "0", 0, "", "", "", "", "", 1.0, "SCREENING 1", -7, "TREATMENT", "2013-05-07", -13], [167, "CDISCPILOT01", "QS", "01-701-1146", 1011, "MHITM11", "EVIDENCE OF ASSOCIATED ATHEROSCLEROSIS", "MHIS-NACC", "", "ABSENT", "", "0", 0, "", "", "", "", "", 1.0, "SCREENING 1", -7, "TREATMENT", "2013-05-07", -13], [168, "CDISCPILOT01", "QS", "01-701-1146", 1012, "MHITM12", "FOCAL NEUROLOGICAL SYMPTOMS", "MHIS-NACC", "", "ABSENT", "", "0", 0, "", "", "", "", "", 1.0, "SCREENING 1", -7, "TREATMENT", "2013-05-07", -13], [169, "CDISCPILOT01", "QS", "01-701-1146", 1013, "MHITM13", "FOCAL NEUROLOGICAL SIGNS", "MHIS-NACC", "", "ABSENT", "", "0", 0, "", "", "", "", "", 1.0, "SCREENING 1", -7, "TREATMENT", "2013-05-07", -13], [170, "CDISCPILOT01", "QS", "01-701-1148", 1001, "MHITM01", "ABRUPT ONSET", "MHIS-NACC", "", "ABSENT", "", "0", 0, "", "", "", "", "", 1.0, "SCREENING 1", -7, "TREATMENT", "2013-08-14", -9], [171, "CDISCPILOT01", "QS", "01-701-1148", 1002, "MHITM02", "STEPWISE DETERIORATION", "MHIS-NACC", "", "ABSENT", "", "0", 0, "", "", "", "", "", 1.0, "SCREENING 1", -7, "TREATMENT", "2013-08-14", -9], [172, "CDISCPILOT01", "QS", "01-701-1148", 1003, "MHITM03", "FLUCTUATING COURSE", "MHIS-NACC", "", "ABSENT", "", "0", 0, "", "", "", "", "", 1.0, "SCREENING 1", -7, "TREATMENT", "2013-08-14", -9], [173, "CDISCPILOT01", "QS", "01-701-1148", 1004, "MHITM04", "NOCTURNAL CONFUSION", "MHIS-NACC", "", "ABSENT", "", "0", 0, "", "", "", "", "", 1.0, "SCREENING 1", -7, "TREATMENT", "2013-08-14", -9], [174, "CDISCPILOT01", "QS", "01-701-1148", 1005, "MHITM05", "RELATIVE PRESERVATION OF PERSONALITY", "MHIS-NACC", "", "ABSENT", "", "0", 0, "", "", "", "", "", 1.0, "SCREENING 1", -7, "TREATMENT", "2013-08-14", -9], [175, "CDISCPILOT01", "QS", "01-701-1148", 1006, "MHITM06", "DEPRESSION", "MHIS-NACC", "", "ABSENT", "", "0", 0, "", "", "", "", "", 1.0, "SCREENING 1", -7, "TREATMENT", "2013-08-14", -9], [176, "CDISCPILOT01", "QS", "01-701-1148", 1007, "MHITM07", "SOMATIC COMPLAINTS", "MHIS-NACC", "", "PRESENT", "", "1", 1, "", "", "", "", "", 1.0, "SCREENING 1", -7, "TREATMENT", "2013-08-14", -9], [177, "CDISCPILOT01", "QS", "01-701-1148", 1008, "MHITM08", "EMOTIONAL INCONTINENCE", "MHIS-NACC", "", "ABSENT", "", "0", 0, "", "", "", "", "", 1.0, "SCREENING 1", -7, "TREATMENT", "2013-08-14", -9], [178, "CDISCPILOT01", "QS", "01-701-1148", 1009, "MHITM09", "HISTORY OF HYPERTENSION", "MHIS-NACC", "", "ABSENT", "", "0", 0, "", "", "", "", "", 1.0, "SCREENING 1", -7, "TREATMENT", "2013-08-14", -9], [179, "CDISCPILOT01", "QS", "01-701-1148", 1010, "MHITM10", "HISTORY OF STROKES", "MHIS-NACC", "", "ABSENT", "", "0", 0, "", "", "", "", "", 1.0, "SCREENING 1", -7, "TREATMENT", "2013-08-14", -9], [180, "CDISCPILOT01", "QS", "01-701-1148", 1011, "MHITM11", "EVIDENCE OF ASSOCIATED ATHEROSCLEROSIS", "MHIS-NACC", "", "ABSENT", "", "0", 0, "", "", "", "", "", 1.0, "SCREENING 1", -7, "TREATMENT", "2013-08-14", -9], [181, "CDISCPILOT01", "QS", "01-701-1148", 1012, "MHITM12", "FOCAL NEUROLOGICAL SYMPTOMS", "MHIS-NACC", "", "ABSENT", "", "0", 0, "", "", "", "", "", 1.0, "SCREENING 1", -7, "TREATMENT", "2013-08-14", -9], [182, "CDISCPILOT01", "QS", "01-701-1148", 1013, "MHITM13", "FOCAL NEUROLOGICAL SIGNS", "MHIS-NACC", "", "ABSENT", "", "0", 0, "", "", "", "", "", 1.0, "SCREENING 1", -7, "TREATMENT", "2013-08-14", -9], [183, "CDISCPILOT01", "QS", "01-701-1153", 1001, "MHITM01", "ABRUPT ONSET", "MHIS-NACC", "", "ABSENT", "", "0", 0, "", "", "", "", "", 1.0, "SCREENING 1", -7, "TREATMENT", "2013-09-06", -17], [184, "CDISCPILOT01", "QS", "01-701-1153", 1002, "MHITM02", "STEPWISE DETERIORATION", "MHIS-NACC", "", "ABSENT", "", "0", 0, "", "", "", "", "", 1.0, "SCREENING 1", -7, "TREATMENT", "2013-09-06", -17], [185, "CDISCPILOT01", "QS", "01-701-1153", 1003, "MHITM03", "FLUCTUATING COURSE", "MHIS-NACC", "", "ABSENT", "", "0", 0, "", "", "", "", "", 1.0, "SCREENING 1", -7, "TREATMENT", "2013-09-06", -17], [186, "CDISCPILOT01", "QS", "01-701-1153", 1004, "MHITM04", "NOCTURNAL CONFUSION", "MHIS-NACC", "", "ABSENT", "", "0", 0, "", "", "", "", "", 1.0, "SCREENING 1", -7, "TREATMENT", "2013-09-06", -17], [187, "CDISCPILOT01", "QS", "01-701-1153", 1005, "MHITM05", "RELATIVE PRESERVATION OF PERSONALITY", "MHIS-NACC", "", "ABSENT", "", "0", 0, "", "", "", "", "", 1.0, "SCREENING 1", -7, "TREATMENT", "2013-09-06", -17], [188, "CDISCPILOT01", "QS", "01-701-1153", 1006, "MHITM06", "DEPRESSION", "MHIS-NACC", "", "ABSENT", "", "0", 0, "", "", "", "", "", 1.0, "SCREENING 1", -7, "TREATMENT", "2013-09-06", -17], [189, "CDISCPILOT01", "QS", "01-701-1153", 1007, "MHITM07", "SOMATIC COMPLAINTS", "MHIS-NACC", "", "PRESENT", "", "1", 1, "", "", "", "", "", 1.0, "SCREENING 1", -7, "TREATMENT", "2013-09-06", -17], [190, "CDISCPILOT01", "QS", "01-701-1153", 1008, "MHITM08", "EMOTIONAL INCONTINENCE", "MHIS-NACC", "", "ABSENT", "", "0", 0, "", "", "", "", "", 1.0, "SCREENING 1", -7, "TREATMENT", "2013-09-06", -17], [191, "CDISCPILOT01", "QS", "01-701-1153", 1009, "MHITM09", "HISTORY OF HYPERTENSION", "MHIS-NACC", "", "ABSENT", "", "0", 0, "", "", "", "", "", 1.0, "SCREENING 1", -7, "TREATMENT", "2013-09-06", -17], [192, "CDISCPILOT01", "QS", "01-701-1153", 1010, "MHITM10", "HISTORY OF STROKES", "MHIS-NACC", "", "ABSENT", "", "0", 0, "", "", "", "", "", 1.0, "SCREENING 1", -7, "TREATMENT", "2013-09-06", -17], [193, "CDISCPILOT01", "QS", "01-701-1153", 1011, "MHITM11", "EVIDENCE OF ASSOCIATED ATHEROSCLEROSIS", "MHIS-NACC", "", "ABSENT", "", "0", 0, "", "", "", "", "", 1.0, "SCREENING 1", -7, "TREATMENT", "2013-09-06", -17], [194, "CDISCPILOT01", "QS", "01-701-1153", 1012, "MHITM12", "FOCAL NEUROLOGICAL SYMPTOMS", "MHIS-NACC", "", "ABSENT", "", "0", 0, "", "", "", "", "", 1.0, "SCREENING 1", -7, "TREATMENT", "2013-09-06", -17], [195, "CDISCPILOT01", "QS", "01-701-1153", 1013, "MHITM13", "FOCAL NEUROLOGICAL SIGNS", "MHIS-NACC", "", "ABSENT", "", "0", 0, "", "", "", "", "", 1.0, "SCREENING 1", -7, "TREATMENT", "2013-09-06", -17], [196, "CDISCPILOT01", "QS", "01-701-1180", 1001, "MHITM01", "ABRUPT ONSET", "MHIS-NACC", "", "ABSENT", "", "0", 0, "", "", "", "", "", 1.0, "SCREENING 1", -7, "TREATMENT", "2013-01-28", -15], [197, "CDISCPILOT01", "QS", "01-701-1180", 1002, "MHITM02", "STEPWISE DETERIORATION", "MHIS-NACC", "", "ABSENT", "", "0", 0, "", "", "", "", "", 1.0, "SCREENING 1", -7, "TREATMENT", "2013-01-28", -15], [198, "CDISCPILOT01", "QS", "01-701-1180", 1003, "MHITM03", "FLUCTUATING COURSE", "MHIS-NACC", "", "ABSENT", "", "0", 0, "", "", "", "", "", 1.0, "SCREENING 1", -7, "TREATMENT", "2013-01-28", -15], [199, "CDISCPILOT01", "QS", "01-701-1180", 1004, "MHITM04", "NOCTURNAL CONFUSION", "MHIS-NACC", "", "ABSENT", "", "0", 0, "", "", "", "", "", 1.0, "SCREENING 1", -7, "TREATMENT", "2013-01-28", -15], [200, "CDISCPILOT01", "QS", "01-701-1180", 1005, "MHITM05", "RELATIVE PRESERVATION OF PERSONALITY", "MHIS-NACC", "", "ABSENT", "", "0", 0, "", "", "", "", "", 1.0, "SCREENING 1", -7, "TREATMENT", "2013-01-28", -15], [201, "CDISCPILOT01", "QS", "01-701-1180", 1006, "MHITM06", "DEPRESSION", "MHIS-NACC", "", "ABSENT", "", "0", 0, "", "", "", "", "", 1.0, "SCREENING 1", -7, "TREATMENT", "2013-01-28", -15], [202, "CDISCPILOT01", "QS", "01-701-1180", 1007, "MHITM07", "SOMATIC COMPLAINTS", "MHIS-NACC", "", "PRESENT", "", "1", 1, "", "", "", "", "", 1.0, "SCREENING 1", -7, "TREATMENT", "2013-01-28", -15], [203, "CDISCPILOT01", "QS", "01-701-1180", 1008, "MHITM08", "EMOTIONAL INCONTINENCE", "MHIS-NACC", "", "ABSENT", "", "0", 0, "", "", "", "", "", 1.0, "SCREENING 1", -7, "TREATMENT", "2013-01-28", -15], [204, "CDISCPILOT01", "QS", "01-701-1180", 1009, "MHITM09", "HISTORY OF HYPERTENSION", "MHIS-NACC", "", "ABSENT", "", "0", 0, "", "", "", "", "", 1.0, "SCREENING 1", -7, "TREATMENT", "2013-01-28", -15], [205, "CDISCPILOT01", "QS", "01-701-1180", 1010, "MHITM10", "HISTORY OF STROKES", "MHIS-NACC", "", "ABSENT", "", "0", 0, "", "", "", "", "", 1.0, "SCREENING 1", -7, "TREATMENT", "2013-01-28", -15], [206, "CDISCPILOT01", "QS", "01-701-1180", 1011, "MHITM11", "EVIDENCE OF ASSOCIATED ATHEROSCLEROSIS", "MHIS-NACC", "", "ABSENT", "", "0", 0, "", "", "", "", "", 1.0, "SCREENING 1", -7, "TREATMENT", "2013-01-28", -15], [207, "CDISCPILOT01", "QS", "01-701-1180", 1012, "MHITM12", "FOCAL NEUROLOGICAL SYMPTOMS", "MHIS-NACC", "", "ABSENT", "", "0", 0, "", "", "", "", "", 1.0, "SCREENING 1", -7, "TREATMENT", "2013-01-28", -15], [208, "CDISCPILOT01", "QS", "01-701-1180", 1013, "MHITM13", "FOCAL NEUROLOGICAL SIGNS", "MHIS-NACC", "", "ABSENT", "", "0", 0, "", "", "", "", "", 1.0, "SCREENING 1", -7, "TREATMENT", "2013-01-28", -15], [209, "CDISCPILOT01", "QS", "01-701-1181", 1001, "MHITM01", "ABRUPT ONSET", "MHIS-NACC", "", "ABSENT", "", "0", 0, "", "", "", "", "", 1.0, "SCREENING 1", -7, "TREATMENT", "2013-11-26", -9], [210, "CDISCPILOT01", "QS", "01-701-1181", 1002, "MHITM02", "STEPWISE DETERIORATION", "MHIS-NACC", "", "ABSENT", "", "0", 0, "", "", "", "", "", 1.0, "SCREENING 1", -7, "TREATMENT", "2013-11-26", -9], [211, "CDISCPILOT01", "QS", "01-701-1181", 1003, "MHITM03", "FLUCTUATING COURSE", "MHIS-NACC", "", "ABSENT", "", "0", 0, "", "", "", "", "", 1.0, "SCREENING 1", -7, "TREATMENT", "2013-11-26", -9], [212, "CDISCPILOT01", "QS", "01-701-1181", 1004, "MHITM04", "NOCTURNAL CONFUSION", "MHIS-NACC", "", "PRESENT", "", "1", 1, "", "", "", "", "", 1.0, "SCREENING 1", -7, "TREATMENT", "2013-11-26", -9], [213, "CDISCPILOT01", "QS", "01-701-1181", 1005, "MHITM05", "RELATIVE PRESERVATION OF PERSONALITY", "MHIS-NACC", "", "ABSENT", "", "0", 0, "", "", "", "", "", 1.0, "SCREENING 1", -7, "TREATMENT", "2013-11-26", -9], [214, "CDISCPILOT01", "QS", "01-701-1181", 1006, "MHITM06", "DEPRESSION", "MHIS-NACC", "", "ABSENT", "", "0", 0, "", "", "", "", "", 1.0, "SCREENING 1", -7, "TREATMENT", "2013-11-26", -9], [215, "CDISCPILOT01", "QS", "01-701-1181", 1007, "MHITM07", "SOMATIC COMPLAINTS", "MHIS-NACC", "", "PRESENT", "", "1", 1, "", "", "", "", "", 1.0, "SCREENING 1", -7, "TREATMENT", "2013-11-26", -9], [216, "CDISCPILOT01", "QS", "01-701-1181", 1008, "MHITM08", "EMOTIONAL INCONTINENCE", "MHIS-NACC", "", "ABSENT", "", "0", 0, "", "", "", "", "", 1.0, "SCREENING 1", -7, "TREATMENT", "2013-11-26", -9], [217, "CDISCPILOT01", "QS", "01-701-1181", 1009, "MHITM09", "HISTORY OF HYPERTENSION", "MHIS-NACC", "", "ABSENT", "", "0", 0, "", "", "", "", "", 1.0, "SCREENING 1", -7, "TREATMENT", "2013-11-26", -9], [218, "CDISCPILOT01", "QS", "01-701-1181", 1010, "MHITM10", "HISTORY OF STROKES", "MHIS-NACC", "", "ABSENT", "", "0", 0, "", "", "", "", "", 1.0, "SCREENING 1", -7, "TREATMENT", "2013-11-26", -9], [219, "CDISCPILOT01", "QS", "01-701-1181", 1011, "MHITM11", "EVIDENCE OF ASSOCIATED ATHEROSCLEROSIS", "MHIS-NACC", "", "ABSENT", "", "0", 0, "", "", "", "", "", 1.0, "SCREENING 1", -7, "TREATMENT", "2013-11-26", -9], [220, "CDISCPILOT01", "QS", "01-701-1181", 1012, "MHITM12", "FOCAL NEUROLOGICAL SYMPTOMS", "MHIS-NACC", "", "ABSENT", "", "0", 0, "", "", "", "", "", 1.0, "SCREENING 1", -7, "TREATMENT", "2013-11-26", -9], [221, "CDISCPILOT01", "QS", "01-701-1181", 1013, "MHITM13", "FOCAL NEUROLOGICAL SIGNS", "MHIS-NACC", "", "ABSENT", "", "0", 0, "", "", "", "", "", 1.0, "SCREENING 1", -7, "TREATMENT", "2013-11-26", -9], [222, "CDISCPILOT01", "QS", "01-701-1188", 1001, "MHITM01", "ABRUPT ONSET", "MHIS-NACC", "", "ABSENT", "", "0", 0, "", "", "", "", "", 1.0, "SCREENING 1", -7, "TREATMENT", "2013-02-03", -12], [223, "CDISCPILOT01", "QS", "01-701-1188", 1002, "MHITM02", "STEPWISE DETERIORATION", "MHIS-NACC", "", "ABSENT", "", "0", 0, "", "", "", "", "", 1.0, "SCREENING 1", -7, "TREATMENT", "2013-02-03", -12], [224, "CDISCPILOT01", "QS", "01-701-1188", 1003, "MHITM03", "FLUCTUATING COURSE", "MHIS-NACC", "", "ABSENT", "", "0", 0, "", "", "", "", "", 1.0, "SCREENING 1", -7, "TREATMENT", "2013-02-03", -12], [225, "CDISCPILOT01", "QS", "01-701-1188", 1004, "MHITM04", "NOCTURNAL CONFUSION", "MHIS-NACC", "", "ABSENT", "", "0", 0, "", "", "", "", "", 1.0, "SCREENING 1", -7, "TREATMENT", "2013-02-03", -12], [226, "CDISCPILOT01", "QS", "01-701-1188", 1005, "MHITM05", "RELATIVE PRESERVATION OF PERSONALITY", "MHIS-NACC", "", "ABSENT", "", "0", 0, "", "", "", "", "", 1.0, "SCREENING 1", -7, "TREATMENT", "2013-02-03", -12], [227, "CDISCPILOT01", "QS", "01-701-1188", 1006, "MHITM06", "DEPRESSION", "MHIS-NACC", "", "ABSENT", "", "0", 0, "", "", "", "", "", 1.0, "SCREENING 1", -7, "TREATMENT", "2013-02-03", -12], [228, "CDISCPILOT01", "QS", "01-701-1188", 1007, "MHITM07", "SOMATIC COMPLAINTS", "MHIS-NACC", "", "ABSENT", "", "0", 0, "", "", "", "", "", 1.0, "SCREENING 1", -7, "TREATMENT", "2013-02-03", -12], [229, "CDISCPILOT01", "QS", "01-701-1188", 1008, "MHITM08", "EMOTIONAL INCONTINENCE", "MHIS-NACC", "", "ABSENT", "", "0", 0, "", "", "", "", "", 1.0, "SCREENING 1", -7, "TREATMENT", "2013-02-03", -12], [230, "CDISCPILOT01", "QS", "01-701-1188", 1009, "MHITM09", "HISTORY OF HYPERTENSION", "MHIS-NACC", "", "ABSENT", "", "0", 0, "", "", "", "", "", 1.0, "SCREENING 1", -7, "TREATMENT", "2013-02-03", -12], [231, "CDISCPILOT01", "QS", "01-701-1188", 1010, "MHITM10", "HISTORY OF STROKES", "MHIS-NACC", "", "ABSENT", "", "0", 0, "", "", "", "", "", 1.0, "SCREENING 1", -7, "TREATMENT", "2013-02-03", -12], [232, "CDISCPILOT01", "QS", "01-701-1188", 1011, "MHITM11", "EVIDENCE OF ASSOCIATED ATHEROSCLEROSIS", "MHIS-NACC", "", "ABSENT", "", "0", 0, "", "", "", "", "", 1.0, "SCREENING 1", -7, "TREATMENT", "2013-02-03", -12], [233, "CDISCPILOT01", "QS", "01-701-1188", 1012, "MHITM12", "FOCAL NEUROLOGICAL SYMPTOMS", "MHIS-NACC", "", "ABSENT", "", "0", 0, "", "", "", "", "", 1.0, "SCREENING 1", -7, "TREATMENT", "2013-02-03", -12], [234, "CDISCPILOT01", "QS", "01-701-1188", 1013, "MHITM13", "FOCAL NEUROLOGICAL SIGNS", "MHIS-NACC", "", "ABSENT", "", "0", 0, "", "", "", "", "", 1.0, "SCREENING 1", -7, "TREATMENT", "2013-02-03", -12], [235, "CDISCPILOT01", "QS", "01-701-1192", 1001, "MHITM01", "ABRUPT ONSET", "MHIS-NACC", "", "ABSENT", "", "0", 0, "", "", "", "", "", 1.0, "SCREENING 1", -7, "TREATMENT", "2012-07-08", -14], [236, "CDISCPILOT01", "QS", "01-701-1192", 1002, "MHITM02", "STEPWISE DETERIORATION", "MHIS-NACC", "", "ABSENT", "", "0", 0, "", "", "", "", "", 1.0, "SCREENING 1", -7, "TREATMENT", "2012-07-08", -14], [237, "CDISCPILOT01", "QS", "01-701-1192", 1003, "MHITM03", "FLUCTUATING COURSE", "MHIS-NACC", "", "ABSENT", "", "0", 0, "", "", "", "", "", 1.0, "SCREENING 1", -7, "TREATMENT", "2012-07-08", -14], [238, "CDISCPILOT01", "QS", "01-701-1192", 1004, "MHITM04", "NOCTURNAL CONFUSION", "MHIS-NACC", "", "ABSENT", "", "0", 0, "", "", "", "", "", 1.0, "SCREENING 1", -7, "TREATMENT", "2012-07-08", -14], [239, "CDISCPILOT01", "QS", "01-701-1192", 1005, "MHITM05", "RELATIVE PRESERVATION OF PERSONALITY", "MHIS-NACC", "", "ABSENT", "", "0", 0, "", "", "", "", "", 1.0, "SCREENING 1", -7, "TREATMENT", "2012-07-08", -14], [240, "CDISCPILOT01", "QS", "01-701-1192", 1006, "MHITM06", "DEPRESSION", "MHIS-NACC", "", "ABSENT", "", "0", 0, "", "", "", "", "", 1.0, "SCREENING 1", -7, "TREATMENT", "2012-07-08", -14], [241, "CDISCPILOT01", "QS", "01-701-1192", 1007, "MHITM07", "SOMATIC COMPLAINTS", "MHIS-NACC", "", "ABSENT", "", "0", 0, "", "", "", "", "", 1.0, "SCREENING 1", -7, "TREATMENT", "2012-07-08", -14], [242, "CDISCPILOT01", "QS", "01-701-1192", 1008, "MHITM08", "EMOTIONAL INCONTINENCE", "MHIS-NACC", "", "ABSENT", "", "0", 0, "", "", "", "", "", 1.0, "SCREENING 1", -7, "TREATMENT", "2012-07-08", -14], [243, "CDISCPILOT01", "QS", "01-701-1192", 1009, "MHITM09", "HISTORY OF HYPERTENSION", "MHIS-NACC", "", "ABSENT", "", "0", 0, "", "", "", "", "", 1.0, "SCREENING 1", -7, "TREATMENT", "2012-07-08", -14], [244, "CDISCPILOT01", "QS", "01-701-1192", 1010, "MHITM10", "HISTORY OF STROKES", "MHIS-NACC", "", "ABSENT", "", "0", 0, "", "", "", "", "", 1.0, "SCREENING 1", -7, "TREATMENT", "2012-07-08", -14], [245, "CDISCPILOT01", "QS", "01-701-1192", 1011, "MHITM11", "EVIDENCE OF ASSOCIATED ATHEROSCLEROSIS", "MHIS-NACC", "", "ABSENT", "", "0", 0, "", "", "", "", "", 1.0, "SCREENING 1", -7, "TREATMENT", "2012-07-08", -14], [246, "CDISCPILOT01", "QS", "01-701-1192", 1012, "MHITM12", "FOCAL NEUROLOGICAL SYMPTOMS", "MHIS-NACC", "", "ABSENT", "", "0", 0, "", "", "", "", "", 1.0, "SCREENING 1", -7, "TREATMENT", "2012-07-08", -14], [247, "CDISCPILOT01", "QS", "01-701-1192", 1013, "MHITM13", "FOCAL NEUROLOGICAL SIGNS", "MHIS-NACC", "", "ABSENT", "", "0", 0, "", "", "", "", "", 1.0, "SCREENING 1", -7, "TREATMENT", "2012-07-08", -14], [248, "CDISCPILOT01", "QS", "01-701-1203", 1001, "MHITM01", "ABRUPT ONSET", "MHIS-NACC", "", "ABSENT", "", "0", 0, "", "", "", "", "", 1.0, "SCREENING 1", -7, "TREATMENT", "2013-01-25", -8], [249, "CDISCPILOT01", "QS", "01-701-1203", 1002, "MHITM02", "STEPWISE DETERIORATION", "MHIS-NACC", "", "ABSENT", "", "0", 0, "", "", "", "", "", 1.0, "SCREENING 1", -7, "TREATMENT", "2013-01-25", -8], [250, "CDISCPILOT01", "QS", "01-701-1203", 1003, "MHITM03", "FLUCTUATING COURSE", "MHIS-NACC", "", "ABSENT", "", "0", 0, "", "", "", "", "", 1.0, "SCREENING 1", -7, "TREATMENT", "2013-01-25", -8], [251, "CDISCPILOT01", "QS", "01-701-1203", 1004, "MHITM04", "NOCTURNAL CONFUSION", "MHIS-NACC", "", "ABSENT", "", "0", 0, "", "", "", "", "", 1.0, "SCREENING 1", -7, "TREATMENT", "2013-01-25", -8], [252, "CDISCPILOT01", "QS", "01-701-1203", 1005, "MHITM05", "RELATIVE PRESERVATION OF PERSONALITY", "MHIS-NACC", "", "ABSENT", "", "0", 0, "", "", "", "", "", 1.0, "SCREENING 1", -7, "TREATMENT", "2013-01-25", -8], [253, "CDISCPILOT01", "QS", "01-701-1203", 1006, "MHITM06", "DEPRESSION", "MHIS-NACC", "", "ABSENT", "", "0", 0, "", "", "", "", "", 1.0, "SCREENING 1", -7, "TREATMENT", "2013-01-25", -8], [254, "CDISCPILOT01", "QS", "01-701-1203", 1007, "MHITM07", "SOMATIC COMPLAINTS", "MHIS-NACC", "", "ABSENT", "", "0", 0, "", "", "", "", "", 1.0, "SCREENING 1", -7, "TREATMENT", "2013-01-25", -8], [255, "CDISCPILOT01", "QS", "01-701-1203", 1008, "MHITM08", "EMOTIONAL INCONTINENCE", "MHIS-NACC", "", "ABSENT", "", "0", 0, "", "", "", "", "", 1.0, "SCREENING 1", -7, "TREATMENT", "2013-01-25", -8], [256, "CDISCPILOT01", "QS", "01-701-1203", 1009, "MHITM09", "HISTORY OF HYPERTENSION", "MHIS-NACC", "", "ABSENT", "", "0", 0, "", "", "", "", "", 1.0, "SCREENING 1", -7, "TREATMENT", "2013-01-25", -8], [257, "CDISCPILOT01", "QS", "01-701-1203", 1010, "MHITM10", "HISTORY OF STROKES", "MHIS-NACC", "", "ABSENT", "", "0", 0, "", "", "", "", "", 1.0, "SCREENING 1", -7, "TREATMENT", "2013-01-25", -8], [258, "CDISCPILOT01", "QS", "01-701-1203", 1011, "MHITM11", "EVIDENCE OF ASSOCIATED ATHEROSCLEROSIS", "MHIS-NACC", "", "ABSENT", "", "0", 0, "", "", "", "", "", 1.0, "SCREENING 1", -7, "TREATMENT", "2013-01-25", -8], [259, "CDISCPILOT01", "QS", "01-701-1203", 1012, "MHITM12", "FOCAL NEUROLOGICAL SYMPTOMS", "MHIS-NACC", "", "ABSENT", "", "0", 0, "", "", "", "", "", 1.0, "SCREENING 1", -7, "TREATMENT", "2013-01-25", -8], [260, "CDISCPILOT01", "QS", "01-701-1203", 1013, "MHITM13", "FOCAL NEUROLOGICAL SIGNS", "MHIS-NACC", "", "ABSENT", "", "0", 0, "", "", "", "", "", 1.0, "SCREENING 1", -7, "TREATMENT", "2013-01-25", -8], [261, "CDISCPILOT01", "QS", "01-701-1211", 1001, "MHITM01", "ABRUPT ONSET", "MHIS-NACC", "", "ABSENT", "", "0", 0, "", "", "", "", "", 1.0, "SCREENING 1", -7, "TREATMENT", "2012-10-30", -16], [262, "CDISCPILOT01", "QS", "01-701-1211", 1002, "MHITM02", "STEPWISE DETERIORATION", "MHIS-NACC", "", "ABSENT", "", "0", 0, "", "", "", "", "", 1.0, "SCREENING 1", -7, "TREATMENT", "2012-10-30", -16], [263, "CDISCPILOT01", "QS", "01-701-1211", 1003, "MHITM03", "FLUCTUATING COURSE", "MHIS-NACC", "", "ABSENT", "", "0", 0, "", "", "", "", "", 1.0, "SCREENING 1", -7, "TREATMENT", "2012-10-30", -16], [264, "CDISCPILOT01", "QS", "01-701-1211", 1004, "MHITM04", "NOCTURNAL CONFUSION", "MHIS-NACC", "", "ABSENT", "", "0", 0, "", "", "", "", "", 1.0, "SCREENING 1", -7, "TREATMENT", "2012-10-30", -16], [265, "CDISCPILOT01", "QS", "01-701-1211", 1005, "MHITM05", "RELATIVE PRESERVATION OF PERSONALITY", "MHIS-NACC", "", "ABSENT", "", "0", 0, "", "", "", "", "", 1.0, "SCREENING 1", -7, "TREATMENT", "2012-10-30", -16], [266, "CDISCPILOT01", "QS", "01-701-1211", 1006, "MHITM06", "DEPRESSION", "MHIS-NACC", "", "ABSENT", "", "0", 0, "", "", "", "", "", 1.0, "SCREENING 1", -7, "TREATMENT", "2012-10-30", -16], [267, "CDISCPILOT01", "QS", "01-701-1211", 1007, "MHITM07", "SOMATIC COMPLAINTS", "MHIS-NACC", "", "ABSENT", "", "0", 0, "", "", "", "", "", 1.0, "SCREENING 1", -7, "TREATMENT", "2012-10-30", -16], [268, "CDISCPILOT01", "QS", "01-701-1211", 1008, "MHITM08", "EMOTIONAL INCONTINENCE", "MHIS-NACC", "", "ABSENT", "", "0", 0, "", "", "", "", "", 1.0, "SCREENING 1", -7, "TREATMENT", "2012-10-30", -16], [269, "CDISCPILOT01", "QS", "01-701-1211", 1009, "MHITM09", "HISTORY OF HYPERTENSION", "MHIS-NACC", "", "ABSENT", "", "0", 0, "", "", "", "", "", 1.0, "SCREENING 1", -7, "TREATMENT", "2012-10-30", -16], [270, "CDISCPILOT01", "QS", "01-701-1211", 1010, "MHITM10", "HISTORY OF STROKES", "MHIS-NACC", "", "ABSENT", "", "0", 0, "", "", "", "", "", 1.0, "SCREENING 1", -7, "TREATMENT", "2012-10-30", -16], [271, "CDISCPILOT01", "QS", "01-701-1211", 1011, "MHITM11", "EVIDENCE OF ASSOCIATED ATHEROSCLEROSIS", "MHIS-NACC", "", "ABSENT", "", "0", 0, "", "", "", "", "", 1.0, "SCREENING 1", -7, "TREATMENT", "2012-10-30", -16], [272, "CDISCPILOT01", "QS", "01-701-1211", 1012, "MHITM12", "FOCAL NEUROLOGICAL SYMPTOMS", "MHIS-NACC", "", "ABSENT", "", "0", 0, "", "", "", "", "", 1.0, "SCREENING 1", -7, "TREATMENT", "2012-10-30", -16], [273, "CDISCPILOT01", "QS", "01-701-1211", 1013, "MHITM13", "FOCAL NEUROLOGICAL SIGNS", "MHIS-NACC", "", "ABSENT", "", "0", 0, "", "", "", "", "", 1.0, "SCREENING 1", -7, "TREATMENT", "2012-10-30", -16], [274, "CDISCPILOT01", "QS", "01-701-1234", 1001, "MHITM01", "ABRUPT ONSET", "MHIS-NACC", "", "ABSENT", "", "0", 0, "", "", "", "", "", 1.0, "SCREENING 1", -7, "TREATMENT", "2013-03-20", -10], [275, "CDISCPILOT01", "QS", "01-701-1234", 1002, "MHITM02", "STEPWISE DETERIORATION", "MHIS-NACC", "", "ABSENT", "", "0", 0, "", "", "", "", "", 1.0, "SCREENING 1", -7, "TREATMENT", "2013-03-20", -10], [276, "CDISCPILOT01", "QS", "01-701-1234", 1003, "MHITM03", "FLUCTUATING COURSE", "MHIS-NACC", "", "ABSENT", "", "0", 0, "", "", "", "", "", 1.0, "SCREENING 1", -7, "TREATMENT", "2013-03-20", -10], [277, "CDISCPILOT01", "QS", "01-701-1234", 1004, "MHITM04", "NOCTURNAL CONFUSION", "MHIS-NACC", "", "ABSENT", "", "0", 0, "", "", "", "", "", 1.0, "SCREENING 1", -7, "TREATMENT", "2013-03-20", -10], [278, "CDISCPILOT01", "QS", "01-701-1234", 1005, "MHITM05", "RELATIVE PRESERVATION OF PERSONALITY", "MHIS-NACC", "", "ABSENT", "", "0", 0, "", "", "", "", "", 1.0, "SCREENING 1", -7, "TREATMENT", "2013-03-20", -10], [279, "CDISCPILOT01", "QS", "01-701-1234", 1006, "MHITM06", "DEPRESSION", "MHIS-NACC", "", "ABSENT", "", "0", 0, "", "", "", "", "", 1.0, "SCREENING 1", -7, "TREATMENT", "2013-03-20", -10], [280, "CDISCPILOT01", "QS", "01-701-1234", 1007, "MHITM07", "SOMATIC COMPLAINTS", "MHIS-NACC", "", "ABSENT", "", "0", 0, "", "", "", "", "", 1.0, "SCREENING 1", -7, "TREATMENT", "2013-03-20", -10], [281, "CDISCPILOT01", "QS", "01-701-1234", 1008, "MHITM08", "EMOTIONAL INCONTINENCE", "MHIS-NACC", "", "ABSENT", "", "0", 0, "", "", "", "", "", 1.0, "SCREENING 1", -7, "TREATMENT", "2013-03-20", -10], [282, "CDISCPILOT01", "QS", "01-701-1234", 1009, "MHITM09", "HISTORY OF HYPERTENSION", "MHIS-NACC", "", "ABSENT", "", "0", 0, "", "", "", "", "", 1.0, "SCREENING 1", -7, "TREATMENT", "2013-03-20", -10], [283, "CDISCPILOT01", "QS", "01-701-1234", 1010, "MHITM10", "HISTORY OF STROKES", "MHIS-NACC", "", "ABSENT", "", "0", 0, "", "", "", "", "", 1.0, "SCREENING 1", -7, "TREATMENT", "2013-03-20", -10], [284, "CDISCPILOT01", "QS", "01-701-1234", 1011, "MHITM11", "EVIDENCE OF ASSOCIATED ATHEROSCLEROSIS", "MHIS-NACC", "", "ABSENT", "", "0", 0, "", "", "", "", "", 1.0, "SCREENING 1", -7, "TREATMENT", "2013-03-20", -10], [285, "CDISCPILOT01", "QS", "01-701-1234", 1012, "MHITM12", "FOCAL NEUROLOGICAL SYMPTOMS", "MHIS-NACC", "", "ABSENT", "", "0", 0, "", "", "", "", "", 1.0, "SCREENING 1", -7, "TREATMENT", "2013-03-20", -10], [286, "CDISCPILOT01", "QS", "01-701-1234", 1013, "MHITM13", "FOCAL NEUROLOGICAL SIGNS", "MHIS-NACC", "", "ABSENT", "", "0", 0, "", "", "", "", "", 1.0, "SCREENING 1", -7, "TREATMENT", "2013-03-20", -10], [287, "CDISCPILOT01", "QS", "01-701-1239", 1001, "MHITM01", "ABRUPT ONSET", "MHIS-NACC", "", "ABSENT", "", "0", 0, "", "", "", "", "", 1.0, "SCREENING 1", -7, "TREATMENT", "2013-12-28", -14], [288, "CDISCPILOT01", "QS", "01-701-1239", 1002, "MHITM02", "STEPWISE DETERIORATION", "MHIS-NACC", "", "ABSENT", "", "0", 0, "", "", "", "", "", 1.0, "SCREENING 1", -7, "TREATMENT", "2013-12-28", -14], [289, "CDISCPILOT01", "QS", "01-701-1239", 1003, "MHITM03", "FLUCTUATING COURSE", "MHIS-NACC", "", "ABSENT", "", "0", 0, "", "", "", "", "", 1.0, "SCREENING 1", -7, "TREATMENT", "2013-12-28", -14], [290, "CDISCPILOT01", "QS", "01-701-1239", 1004, "MHITM04", "NOCTURNAL CONFUSION", "MHIS-NACC", "", "ABSENT", "", "0", 0, "", "", "", "", "", 1.0, "SCREENING 1", -7, "TREATMENT", "2013-12-28", -14], [291, "CDISCPILOT01", "QS", "01-701-1239", 1005, "MHITM05", "RELATIVE PRESERVATION OF PERSONALITY", "MHIS-NACC", "", "ABSENT", "", "0", 0, "", "", "", "", "", 1.0, "SCREENING 1", -7, "TREATMENT", "2013-12-28", -14], [292, "CDISCPILOT01", "QS", "01-701-1239", 1006, "MHITM06", "DEPRESSION", "MHIS-NACC", "", "ABSENT", "", "0", 0, "", "", "", "", "", 1.0, "SCREENING 1", -7, "TREATMENT", "2013-12-28", -14], [293, "CDISCPILOT01", "QS", "01-701-1239", 1007, "MHITM07", "SOMATIC COMPLAINTS", "MHIS-NACC", "", "ABSENT", "", "0", 0, "", "", "", "", "", 1.0, "SCREENING 1", -7, "TREATMENT", "2013-12-28", -14], [294, "CDISCPILOT01", "QS", "01-701-1239", 1008, "MHITM08", "EMOTIONAL INCONTINENCE", "MHIS-NACC", "", "ABSENT", "", "0", 0, "", "", "", "", "", 1.0, "SCREENING 1", -7, "TREATMENT", "2013-12-28", -14], [295, "CDISCPILOT01", "QS", "01-701-1239", 1009, "MHITM09", "HISTORY OF HYPERTENSION", "MHIS-NACC", "", "ABSENT", "", "0", 0, "", "", "", "", "", 1.0, "SCREENING 1", -7, "TREATMENT", "2013-12-28", -14], [296, "CDISCPILOT01", "QS", "01-701-1239", 1010, "MHITM10", "HISTORY OF STROKES", "MHIS-NACC", "", "ABSENT", "", "0", 0, "", "", "", "", "", 1.0, "SCREENING 1", -7, "TREATMENT", "2013-12-28", -14], [297, "CDISCPILOT01", "QS", "01-701-1239", 1011, "MHITM11", "EVIDENCE OF ASSOCIATED ATHEROSCLEROSIS", "MHIS-NACC", "", "ABSENT", "", "0", 0, "", "", "", "", "", 1.0, "SCREENING 1", -7, "TREATMENT", "2013-12-28", -14], [298, "CDISCPILOT01", "QS", "01-701-1239", 1012, "MHITM12", "FOCAL NEUROLOGICAL SYMPTOMS", "MHIS-NACC", "", "ABSENT", "", "0", 0, "", "", "", "", "", 1.0, "SCREENING 1", -7, "TREATMENT", "2013-12-28", -14], [299, "CDISCPILOT01", "QS", "01-701-1239", 1013, "MHITM13", "FOCAL NEUROLOGICAL SIGNS", "MHIS-NACC", "", "ABSENT", "", "0", 0, "", "", "", "", "", 1.0, "SCREENING 1", -7, "TREATMENT", "2013-12-28", -14], [300, "CDISCPILOT01", "QS", "01-701-1275", 1001, "MHITM01", "ABRUPT ONSET", "MHIS-NACC", "", "ABSENT", "", "0", 0, "", "", "", "", "", 1.0, "SCREENING 1", -7, "TREATMENT", "2014-01-25", -13], [301, "CDISCPILOT01", "QS", "01-701-1275", 1002, "MHITM02", "STEPWISE DETERIORATION", "MHIS-NACC", "", "ABSENT", "", "0", 0, "", "", "", "", "", 1.0, "SCREENING 1", -7, "TREATMENT", "2014-01-25", -13], [302, "CDISCPILOT01", "QS", "01-701-1275", 1003, "MHITM03", "FLUCTUATING COURSE", "MHIS-NACC", "", "ABSENT", "", "0", 0, "", "", "", "", "", 1.0, "SCREENING 1", -7, "TREATMENT", "2014-01-25", -13], [303, "CDISCPILOT01", "QS", "01-701-1275", 1004, "MHITM04", "NOCTURNAL CONFUSION", "MHIS-NACC", "", "ABSENT", "", "0", 0, "", "", "", "", "", 1.0, "SCREENING 1", -7, "TREATMENT", "2014-01-25", -13], [304, "CDISCPILOT01", "QS", "01-701-1275", 1005, "MHITM05", "RELATIVE PRESERVATION OF PERSONALITY", "MHIS-NACC", "", "ABSENT", "", "0", 0, "", "", "", "", "", 1.0, "SCREENING 1", -7, "TREATMENT", "2014-01-25", -13], [305, "CDISCPILOT01", "QS", "01-701-1275", 1006, "MHITM06", "DEPRESSION", "MHIS-NACC", "", "ABSENT", "", "0", 0, "", "", "", "", "", 1.0, "SCREENING 1", -7, "TREATMENT", "2014-01-25", -13], [306, "CDISCPILOT01", "QS", "01-701-1275", 1007, "MHITM07", "SOMATIC COMPLAINTS", "MHIS-NACC", "", "PRESENT", "", "1", 1, "", "", "", "", "", 1.0, "SCREENING 1", -7, "TREATMENT", "2014-01-25", -13], [307, "CDISCPILOT01", "QS", "01-701-1275", 1008, "MHITM08", "EMOTIONAL INCONTINENCE", "MHIS-NACC", "", "ABSENT", "", "0", 0, "", "", "", "", "", 1.0, "SCREENING 1", -7, "TREATMENT", "2014-01-25", -13], [308, "CDISCPILOT01", "QS", "01-701-1275", 1009, "MHITM09", "HISTORY OF HYPERTENSION", "MHIS-NACC", "", "ABSENT", "", "0", 0, "", "", "", "", "", 1.0, "SCREENING 1", -7, "TREATMENT", "2014-01-25", -13], [309, "CDISCPILOT01", "QS", "01-701-1275", 1010, "MHITM10", "HISTORY OF STROKES", "MHIS-NACC", "", "ABSENT", "", "0", 0, "", "", "", "", "", 1.0, "SCREENING 1", -7, "TREATMENT", "2014-01-25", -13], [310, "CDISCPILOT01", "QS", "01-701-1275", 1011, "MHITM11", "EVIDENCE OF ASSOCIATED ATHEROSCLEROSIS", "MHIS-NACC", "", "ABSENT", "", "0", 0, "", "", "", "", "", 1.0, "SCREENING 1", -7, "TREATMENT", "2014-01-25", -13], [311, "CDISCPILOT01", "QS", "01-701-1275", 1012, "MHITM12", "FOCAL NEUROLOGICAL SYMPTOMS", "MHIS-NACC", "", "ABSENT", "", "0", 0, "", "", "", "", "", 1.0, "SCREENING 1", -7, "TREATMENT", "2014-01-25", -13], [312, "CDISCPILOT01", "QS", "01-701-1275", 1013, "MHITM13", "FOCAL NEUROLOGICAL SIGNS", "MHIS-NACC", "", "ABSENT", "", "0", 0, "", "", "", "", "", 1.0, "SCREENING 1", -7, "TREATMENT", "2014-01-25", -13], [313, "CDISCPILOT01", "QS", "01-701-1287", 1001, "MHITM01", "ABRUPT ONSET", "MHIS-NACC", "", "ABSENT", "", "0", 0, "", "", "", "", "", 1.0, "SCREENING 1", -7, "TREATMENT", "2014-01-17", -8], [314, "CDISCPILOT01", "QS", "01-701-1287", 1002, "MHITM02", "STEPWISE DETERIORATION", "MHIS-NACC", "", "ABSENT", "", "0", 0, "", "", "", "", "", 1.0, "SCREENING 1", -7, "TREATMENT", "2014-01-17", -8], [315, "CDISCPILOT01", "QS", "01-701-1287", 1003, "MHITM03", "FLUCTUATING COURSE", "MHIS-NACC", "", "ABSENT", "", "0", 0, "", "", "", "", "", 1.0, "SCREENING 1", -7, "TREATMENT", "2014-01-17", -8], [316, "CDISCPILOT01", "QS", "01-701-1287", 1004, "MHITM04", "NOCTURNAL CONFUSION", "MHIS-NACC", "", "ABSENT", "", "0", 0, "", "", "", "", "", 1.0, "SCREENING 1", -7, "TREATMENT", "2014-01-17", -8], [317, "CDISCPILOT01", "QS", "01-701-1287", 1005, "MHITM05", "RELATIVE PRESERVATION OF PERSONALITY", "MHIS-NACC", "", "ABSENT", "", "0", 0, "", "", "", "", "", 1.0, "SCREENING 1", -7, "TREATMENT", "2014-01-17", -8], [318, "CDISCPILOT01", "QS", "01-701-1287", 1006, "MHITM06", "DEPRESSION", "MHIS-NACC", "", "ABSENT", "", "0", 0, "", "", "", "", "", 1.0, "SCREENING 1", -7, "TREATMENT", "2014-01-17", -8], [319, "CDISCPILOT01", "QS", "01-701-1287", 1007, "MHITM07", "SOMATIC COMPLAINTS", "MHIS-NACC", "", "ABSENT", "", "0", 0, "", "", "", "", "", 1.0, "SCREENING 1", -7, "TREATMENT", "2014-01-17", -8], [320, "CDISCPILOT01", "QS", "01-701-1287", 1008, "MHITM08", "EMOTIONAL INCONTINENCE", "MHIS-NACC", "", "ABSENT", "", "0", 0, "", "", "", "", "", 1.0, "SCREENING 1", -7, "TREATMENT", "2014-01-17", -8], [321, "CDISCPILOT01", "QS", "01-701-1287", 1009, "MHITM09", "HISTORY OF HYPERTENSION", "MHIS-NACC", "", "ABSENT", "", "0", 0, "", "", "", "", "", 1.0, "SCREENING 1", -7, "TREATMENT", "2014-01-17", -8], [322, "CDISCPILOT01", "QS", "01-701-1287", 1010, "MHITM10", "HISTORY OF STROKES", "MHIS-NACC", "", "ABSENT", "", "0", 0, "", "", "", "", "", 1.0, "SCREENING 1", -7, "TREATMENT", "2014-01-17", -8], [323, "CDISCPILOT01", "QS", "01-701-1287", 1011, "MHITM11", "EVIDENCE OF ASSOCIATED ATHEROSCLEROSIS", "MHIS-NACC", "", "ABSENT", "", "0", 0, "", "", "", "", "", 1.0, "SCREENING 1", -7, "TREATMENT", "2014-01-17", -8], [324, "CDISCPILOT01", "QS", "01-701-1287", 1012, "MHITM12", "FOCAL NEUROLOGICAL SYMPTOMS", "MHIS-NACC", "", "ABSENT", "", "0", 0, "", "", "", "", "", 1.0, "SCREENING 1", -7, "TREATMENT", "2014-01-17", -8], [325, "CDISCPILOT01", "QS", "01-701-1287", 1013, "MHITM13", "FOCAL NEUROLOGICAL SIGNS", "MHIS-NACC", "", "ABSENT", "", "0", 0, "", "", "", "", "", 1.0, "SCREENING 1", -7, "TREATMENT", "2014-01-17", -8], [326, "CDISCPILOT01", "QS", "01-701-1294", 1001, "MHITM01", "ABRUPT ONSET", "MHIS-NACC", "", "ABSENT", "", "0", 0, "", "", "", "", "", 1.0, "SCREENING 1", -7, "TREATMENT", "2013-03-17", -7], [327, "CDISCPILOT01", "QS", "01-701-1294", 1002, "MHITM02", "STEPWISE DETERIORATION", "MHIS-NACC", "", "ABSENT", "", "0", 0, "", "", "", "", "", 1.0, "SCREENING 1", -7, "TREATMENT", "2013-03-17", -7], [328, "CDISCPILOT01", "QS", "01-701-1294", 1003, "MHITM03", "FLUCTUATING COURSE", "MHIS-NACC", "", "ABSENT", "", "0", 0, "", "", "", "", "", 1.0, "SCREENING 1", -7, "TREATMENT", "2013-03-17", -7], [329, "CDISCPILOT01", "QS", "01-701-1294", 1004, "MHITM04", "NOCTURNAL CONFUSION", "MHIS-NACC", "", "ABSENT", "", "0", 0, "", "", "", "", "", 1.0, "SCREENING 1", -7, "TREATMENT", "2013-03-17", -7], [330, "CDISCPILOT01", "QS", "01-701-1294", 1005, "MHITM05", "RELATIVE PRESERVATION OF PERSONALITY", "MHIS-NACC", "", "ABSENT", "", "0", 0, "", "", "", "", "", 1.0, "SCREENING 1", -7, "TREATMENT", "2013-03-17", -7], [331, "CDISCPILOT01", "QS", "01-701-1294", 1006, "MHITM06", "DEPRESSION", "MHIS-NACC", "", "ABSENT", "", "0", 0, "", "", "", "", "", 1.0, "SCREENING 1", -7, "TREATMENT", "2013-03-17", -7], [332, "CDISCPILOT01", "QS", "01-701-1294", 1007, "MHITM07", "SOMATIC COMPLAINTS", "MHIS-NACC", "", "ABSENT", "", "0", 0, "", "", "", "", "", 1.0, "SCREENING 1", -7, "TREATMENT", "2013-03-17", -7], [333, "CDISCPILOT01", "QS", "01-701-1294", 1008, "MHITM08", "EMOTIONAL INCONTINENCE", "MHIS-NACC", "", "ABSENT", "", "0", 0, "", "", "", "", "", 1.0, "SCREENING 1", -7, "TREATMENT", "2013-03-17", -7], [334, "CDISCPILOT01", "QS", "01-701-1294", 1009, "MHITM09", "HISTORY OF HYPERTENSION", "MHIS-NACC", "", "ABSENT", "", "0", 0, "", "", "", "", "", 1.0, "SCREENING 1", -7, "TREATMENT", "2013-03-17", -7], [335, "CDISCPILOT01", "QS", "01-701-1294", 1010, "MHITM10", "HISTORY OF STROKES", "MHIS-NACC", "", "ABSENT", "", "0", 0, "", "", "", "", "", 1.0, "SCREENING 1", -7, "TREATMENT", "2013-03-17", -7], [336, "CDISCPILOT01", "QS", "01-701-1294", 1011, "MHITM11", "EVIDENCE OF ASSOCIATED ATHEROSCLEROSIS", "MHIS-NACC", "", "ABSENT", "", "0", 0, "", "", "", "", "", 1.0, "SCREENING 1", -7, "TREATMENT", "2013-03-17", -7], [337, "CDISCPILOT01", "QS", "01-701-1294", 1012, "MHITM12", "FOCAL NEUROLOGICAL SYMPTOMS", "MHIS-NACC", "", "ABSENT", "", "0", 0, "", "", "", "", "", 1.0, "SCREENING 1", -7, "TREATMENT", "2013-03-17", -7], [338, "CDISCPILOT01", "QS", "01-701-1294", 1013, "MHITM13", "FOCAL NEUROLOGICAL SIGNS", "MHIS-NACC", "", "ABSENT", "", "0", 0, "", "", "", "", "", 1.0, "SCREENING 1", -7, "TREATMENT", "2013-03-17", -7], [339, "CDISCPILOT01", "QS", "01-701-1302", 1001, "MHITM01", "ABRUPT ONSET", "MHIS-NACC", "", "ABSENT", "", "0", 0, "", "", "", "", "", 1.0, "SCREENING 1", -7, "TREATMENT", "2013-08-20", -9], [340, "CDISCPILOT01", "QS", "01-701-1302", 1002, "MHITM02", "STEPWISE DETERIORATION", "MHIS-NACC", "", "ABSENT", "", "0", 0, "", "", "", "", "", 1.0, "SCREENING 1", -7, "TREATMENT", "2013-08-20", -9], [341, "CDISCPILOT01", "QS", "01-701-1302", 1003, "MHITM03", "FLUCTUATING COURSE", "MHIS-NACC", "", "ABSENT", "", "0", 0, "", "", "", "", "", 1.0, "SCREENING 1", -7, "TREATMENT", "2013-08-20", -9], [342, "CDISCPILOT01", "QS", "01-701-1302", 1004, "MHITM04", "NOCTURNAL CONFUSION", "MHIS-NACC", "", "ABSENT", "", "0", 0, "", "", "", "", "", 1.0, "SCREENING 1", -7, "TREATMENT", "2013-08-20", -9], [343, "CDISCPILOT01", "QS", "01-701-1302", 1005, "MHITM05", "RELATIVE PRESERVATION OF PERSONALITY", "MHIS-NACC", "", "ABSENT", "", "0", 0, "", "", "", "", "", 1.0, "SCREENING 1", -7, "TREATMENT", "2013-08-20", -9], [344, "CDISCPILOT01", "QS", "01-701-1302", 1006, "MHITM06", "DEPRESSION", "MHIS-NACC", "", "ABSENT", "", "0", 0, "", "", "", "", "", 1.0, "SCREENING 1", -7, "TREATMENT", "2013-08-20", -9], [345, "CDISCPILOT01", "QS", "01-701-1302", 1007, "MHITM07", "SOMATIC COMPLAINTS", "MHIS-NACC", "", "PRESENT", "", "1", 1, "", "", "", "", "", 1.0, "SCREENING 1", -7, "TREATMENT", "2013-08-20", -9], [346, "CDISCPILOT01", "QS", "01-701-1302", 1008, "MHITM08", "EMOTIONAL INCONTINENCE", "MHIS-NACC", "", "ABSENT", "", "0", 0, "", "", "", "", "", 1.0, "SCREENING 1", -7, "TREATMENT", "2013-08-20", -9], [347, "CDISCPILOT01", "QS", "01-701-1302", 1009, "MHITM09", "HISTORY OF HYPERTENSION", "MHIS-NACC", "", "ABSENT", "", "0", 0, "", "", "", "", "", 1.0, "SCREENING 1", -7, "TREATMENT", "2013-08-20", -9], [348, "CDISCPILOT01", "QS", "01-701-1302", 1010, "MHITM10", "HISTORY OF STROKES", "MHIS-NACC", "", "ABSENT", "", "0", 0, "", "", "", "", "", 1.0, "SCREENING 1", -7, "TREATMENT", "2013-08-20", -9], [349, "CDISCPILOT01", "QS", "01-701-1302", 1011, "MHITM11", "EVIDENCE OF ASSOCIATED ATHEROSCLEROSIS", "MHIS-NACC", "", "ABSENT", "", "0", 0, "", "", "", "", "", 1.0, "SCREENING 1", -7, "TREATMENT", "2013-08-20", -9], [350, "CDISCPILOT01", "QS", "01-701-1302", 1012, "MHITM12", "FOCAL NEUROLOGICAL SYMPTOMS", "MHIS-NACC", "", "ABSENT", "", "0", 0, "", "", "", "", "", 1.0, "SCREENING 1", -7, "TREATMENT", "2013-08-20", -9], [351, "CDISCPILOT01", "QS", "01-701-1302", 1013, "MHITM13", "FOCAL NEUROLOGICAL SIGNS", "MHIS-NACC", "", "ABSENT", "", "0", 0, "", "", "", "", "", 1.0, "SCREENING 1", -7, "TREATMENT", "2013-08-20", -9], [352, "CDISCPILOT01", "QS", "01-701-1317", 1001, "MHITM01", "ABRUPT ONSET", "MHIS-NACC", "", "ABSENT", "", "0", 0, "", "", "", "", "", 1.0, "SCREENING 1", -7, "TREATMENT", "2014-05-10", -12], [353, "CDISCPILOT01", "QS", "01-701-1317", 1002, "MHITM02", "STEPWISE DETERIORATION", "MHIS-NACC", "", "ABSENT", "", "0", 0, "", "", "", "", "", 1.0, "SCREENING 1", -7, "TREATMENT", "2014-05-10", -12], [354, "CDISCPILOT01", "QS", "01-701-1317", 1003, "MHITM03", "FLUCTUATING COURSE", "MHIS-NACC", "", "ABSENT", "", "0", 0, "", "", "", "", "", 1.0, "SCREENING 1", -7, "TREATMENT", "2014-05-10", -12], [355, "CDISCPILOT01", "QS", "01-701-1317", 1004, "MHITM04", "NOCTURNAL CONFUSION", "MHIS-NACC", "", "ABSENT", "", "0", 0, "", "", "", "", "", 1.0, "SCREENING 1", -7, "TREATMENT", "2014-05-10", -12], [356, "CDISCPILOT01", "QS", "01-701-1317", 1005, "MHITM05", "RELATIVE PRESERVATION OF PERSONALITY", "MHIS-NACC", "", "ABSENT", "", "0", 0, "", "", "", "", "", 1.0, "SCREENING 1", -7, "TREATMENT", "2014-05-10", -12], [357, "CDISCPILOT01", "QS", "01-701-1317", 1006, "MHITM06", "DEPRESSION", "MHIS-NACC", "", "ABSENT", "", "0", 0, "", "", "", "", "", 1.0, "SCREENING 1", -7, "TREATMENT", "2014-05-10", -12], [358, "CDISCPILOT01", "QS", "01-701-1317", 1007, "MHITM07", "SOMATIC COMPLAINTS", "MHIS-NACC", "", "PRESENT", "", "1", 1, "", "", "", "", "", 1.0, "SCREENING 1", -7, "TREATMENT", "2014-05-10", -12], [359, "CDISCPILOT01", "QS", "01-701-1317", 1008, "MHITM08", "EMOTIONAL INCONTINENCE", "MHIS-NACC", "", "ABSENT", "", "0", 0, "", "", "", "", "", 1.0, "SCREENING 1", -7, "TREATMENT", "2014-05-10", -12], [360, "CDISCPILOT01", "QS", "01-701-1317", 1009, "MHITM09", "HISTORY OF HYPERTENSION", "MHIS-NACC", "", "ABSENT", "", "0", 0, "", "", "", "", "", 1.0, "SCREENING 1", -7, "TREATMENT", "2014-05-10", -12], [361, "CDISCPILOT01", "QS", "01-701-1317", 1010, "MHITM10", "HISTORY OF STROKES", "MHIS-NACC", "", "ABSENT", "", "0", 0, "", "", "", "", "", 1.0, "SCREENING 1", -7, "TREATMENT", "2014-05-10", -12], [362, "CDISCPILOT01", "QS", "01-701-1317", 1011, "MHITM11", "EVIDENCE OF ASSOCIATED ATHEROSCLEROSIS", "MHIS-NACC", "", "ABSENT", "", "0", 0, "", "", "", "", "", 1.0, "SCREENING 1", -7, "TREATMENT", "2014-05-10", -12], [363, "CDISCPILOT01", "QS", "01-701-1317", 1012, "MHITM12", "FOCAL NEUROLOGICAL SYMPTOMS", "MHIS-NACC", "", "ABSENT", "", "0", 0, "", "", "", "", "", 1.0, "SCREENING 1", -7, "TREATMENT", "2014-05-10", -12], [364, "CDISCPILOT01", "QS", "01-701-1317", 1013, "MHITM13", "FOCAL NEUROLOGICAL SIGNS", "MHIS-NACC", "", "ABSENT", "", "0", 0, "", "", "", "", "", 1.0, "SCREENING 1", -7, "TREATMENT", "2014-05-10", -12], [365, "CDISCPILOT01", "QS", "01-701-1324", 1001, "MHITM01", "ABRUPT ONSET", "MHIS-NACC", "", "ABSENT", "", "0", 0, "", "", "", "", "", 1.0, "SCREENING 1", -7, "TREATMENT", "2012-09-16", -16], [366, "CDISCPILOT01", "QS", "01-701-1324", 1002, "MHITM02", "STEPWISE DETERIORATION", "MHIS-NACC", "", "ABSENT", "", "0", 0, "", "", "", "", "", 1.0, "SCREENING 1", -7, "TREATMENT", "2012-09-16", -16], [367, "CDISCPILOT01", "QS", "01-701-1324", 1003, "MHITM03", "FLUCTUATING COURSE", "MHIS-NACC", "", "ABSENT", "", "0", 0, "", "", "", "", "", 1.0, "SCREENING 1", -7, "TREATMENT", "2012-09-16", -16], [368, "CDISCPILOT01", "QS", "01-701-1324", 1004, "MHITM04", "NOCTURNAL CONFUSION", "MHIS-NACC", "", "ABSENT", "", "0", 0, "", "", "", "", "", 1.0, "SCREENING 1", -7, "TREATMENT", "2012-09-16", -16], [369, "CDISCPILOT01", "QS", "01-701-1324", 1005, "MHITM05", "RELATIVE PRESERVATION OF PERSONALITY", "MHIS-NACC", "", "ABSENT", "", "0", 0, "", "", "", "", "", 1.0, "SCREENING 1", -7, "TREATMENT", "2012-09-16", -16], [370, "CDISCPILOT01", "QS", "01-701-1324", 1006, "MHITM06", "DEPRESSION", "MHIS-NACC", "", "ABSENT", "", "0", 0, "", "", "", "", "", 1.0, "SCREENING 1", -7, "TREATMENT", "2012-09-16", -16], [371, "CDISCPILOT01", "QS", "01-701-1324", 1007, "MHITM07", "SOMATIC COMPLAINTS", "MHIS-NACC", "", "PRESENT", "", "1", 1, "", "", "", "", "", 1.0, "SCREENING 1", -7, "TREATMENT", "2012-09-16", -16], [372, "CDISCPILOT01", "QS", "01-701-1324", 1008, "MHITM08", "EMOTIONAL INCONTINENCE", "MHIS-NACC", "", "ABSENT", "", "0", 0, "", "", "", "", "", 1.0, "SCREENING 1", -7, "TREATMENT", "2012-09-16", -16], [373, "CDISCPILOT01", "QS", "01-701-1324", 1009, "MHITM09", "HISTORY OF HYPERTENSION", "MHIS-NACC", "", "ABSENT", "", "0", 0, "", "", "", "", "", 1.0, "SCREENING 1", -7, "TREATMENT", "2012-09-16", -16], [374, "CDISCPILOT01", "QS", "01-701-1324", 1010, "MHITM10", "HISTORY OF STROKES", "MHIS-NACC", "", "ABSENT", "", "0", 0, "", "", "", "", "", 1.0, "SCREENING 1", -7, "TREATMENT", "2012-09-16", -16], [375, "CDISCPILOT01", "QS", "01-701-1324", 1011, "MHITM11", "EVIDENCE OF ASSOCIATED ATHEROSCLEROSIS", "MHIS-NACC", "", "ABSENT", "", "0", 0, "", "", "", "", "", 1.0, "SCREENING 1", -7, "TREATMENT", "2012-09-16", -16], [376, "CDISCPILOT01", "QS", "01-701-1324", 1012, "MHITM12", "FOCAL NEUROLOGICAL SYMPTOMS", "MHIS-NACC", "", "ABSENT", "", "0", 0, "", "", "", "", "", 1.0, "SCREENING 1", -7, "TREATMENT", "2012-09-16", -16], [377, "CDISCPILOT01", "QS", "01-701-1324", 1013, "MHITM13", "FOCAL NEUROLOGICAL SIGNS", "MHIS-NACC", "", "ABSENT", "", "0", 0, "", "", "", "", "", 1.0, "SCREENING 1", -7, "TREATMENT", "2012-09-16", -16], [378, "CDISCPILOT01", "QS", "01-701-1341", 1001, "MHITM01", "ABRUPT ONSET", "MHIS-NACC", "", "ABSENT", "", "0", 0, "", "", "", "", "", 1.0, "SCREENING 1", -7, "TREATMENT", "2012-12-22", -14], [379, "CDISCPILOT01", "QS", "01-701-1341", 1002, "MHITM02", "STEPWISE DETERIORATION", "MHIS-NACC", "", "ABSENT", "", "0", 0, "", "", "", "", "", 1.0, "SCREENING 1", -7, "TREATMENT", "2012-12-22", -14], [380, "CDISCPILOT01", "QS", "01-701-1341", 1003, "MHITM03", "FLUCTUATING COURSE", "MHIS-NACC", "", "ABSENT", "", "0", 0, "", "", "", "", "", 1.0, "SCREENING 1", -7, "TREATMENT", "2012-12-22", -14], [381, "CDISCPILOT01", "QS", "01-701-1341", 1004, "MHITM04", "NOCTURNAL CONFUSION", "MHIS-NACC", "", "ABSENT", "", "0", 0, "", "", "", "", "", 1.0, "SCREENING 1", -7, "TREATMENT", "2012-12-22", -14], [382, "CDISCPILOT01", "QS", "01-701-1341", 1005, "MHITM05", "RELATIVE PRESERVATION OF PERSONALITY", "MHIS-NACC", "", "ABSENT", "", "0", 0, "", "", "", "", "", 1.0, "SCREENING 1", -7, "TREATMENT", "2012-12-22", -14], [383, "CDISCPILOT01", "QS", "01-701-1341", 1006, "MHITM06", "DEPRESSION", "MHIS-NACC", "", "PRESENT", "", "1", 1, "", "", "", "", "", 1.0, "SCREENING 1", -7, "TREATMENT", "2012-12-22", -14], [384, "CDISCPILOT01", "QS", "01-701-1341", 1007, "MHITM07", "SOMATIC COMPLAINTS", "MHIS-NACC", "", "ABSENT", "", "0", 0, "", "", "", "", "", 1.0, "SCREENING 1", -7, "TREATMENT", "2012-12-22", -14], [385, "CDISCPILOT01", "QS", "01-701-1341", 1008, "MHITM08", "EMOTIONAL INCONTINENCE", "MHIS-NACC", "", "ABSENT", "", "0", 0, "", "", "", "", "", 1.0, "SCREENING 1", -7, "TREATMENT", "2012-12-22", -14], [386, "CDISCPILOT01", "QS", "01-701-1341", 1009, "MHITM09", "HISTORY OF HYPERTENSION", "MHIS-NACC", "", "PRESENT", "", "1", 1, "", "", "", "", "", 1.0, "SCREENING 1", -7, "TREATMENT", "2012-12-22", -14], [387, "CDISCPILOT01", "QS", "01-701-1341", 1010, "MHITM10", "HISTORY OF STROKES", "MHIS-NACC", "", "ABSENT", "", "0", 0, "", "", "", "", "", 1.0, "SCREENING 1", -7, "TREATMENT", "2012-12-22", -14], [388, "CDISCPILOT01", "QS", "01-701-1341", 1011, "MHITM11", "EVIDENCE OF ASSOCIATED ATHEROSCLEROSIS", "MHIS-NACC", "", "ABSENT", "", "0", 0, "", "", "", "", "", 1.0, "SCREENING 1", -7, "TREATMENT", "2012-12-22", -14], [389, "CDISCPILOT01", "QS", "01-701-1341", 1012, "MHITM12", "FOCAL NEUROLOGICAL SYMPTOMS", "MHIS-NACC", "", "ABSENT", "", "0", 0, "", "", "", "", "", 1.0, "SCREENING 1", -7, "TREATMENT", "2012-12-22", -14], [390, "CDISCPILOT01", "QS", "01-701-1341", 1013, "MHITM13", "FOCAL NEUROLOGICAL SIGNS", "MHIS-NACC", "", "ABSENT", "", "0", 0, "", "", "", "", "", 1.0, "SCREENING 1", -7, "TREATMENT", "2012-12-22", -14], [391, "CDISCPILOT01", "QS", "01-701-1345", 1001, "MHITM01", "ABRUPT ONSET", "MHIS-NACC", "", "ABSENT", "", "0", 0, "", "", "", "", "", 1.0, "SCREENING 1", -7, "TREATMENT", "2013-10-01", -7], [392, "CDISCPILOT01", "QS", "01-701-1345", 1002, "MHITM02", "STEPWISE DETERIORATION", "MHIS-NACC", "", "ABSENT", "", "0", 0, "", "", "", "", "", 1.0, "SCREENING 1", -7, "TREATMENT", "2013-10-01", -7], [393, "CDISCPILOT01", "QS", "01-701-1345", 1003, "MHITM03", "FLUCTUATING COURSE", "MHIS-NACC", "", "ABSENT", "", "0", 0, "", "", "", "", "", 1.0, "SCREENING 1", -7, "TREATMENT", "2013-10-01", -7], [394, "CDISCPILOT01", "QS", "01-701-1345", 1004, "MHITM04", "NOCTURNAL CONFUSION", "MHIS-NACC", "", "ABSENT", "", "0", 0, "", "", "", "", "", 1.0, "SCREENING 1", -7, "TREATMENT", "2013-10-01", -7], [395, "CDISCPILOT01", "QS", "01-701-1345", 1005, "MHITM05", "RELATIVE PRESERVATION OF PERSONALITY", "MHIS-NACC", "", "ABSENT", "", "0", 0, "", "", "", "", "", 1.0, "SCREENING 1", -7, "TREATMENT", "2013-10-01", -7], [396, "CDISCPILOT01", "QS", "01-701-1345", 1006, "MHITM06", "DEPRESSION", "MHIS-NACC", "", "ABSENT", "", "0", 0, "", "", "", "", "", 1.0, "SCREENING 1", -7, "TREATMENT", "2013-10-01", -7], [397, "CDISCPILOT01", "QS", "01-701-1345", 1007, "MHITM07", "SOMATIC COMPLAINTS", "MHIS-NACC", "", "ABSENT", "", "0", 0, "", "", "", "", "", 1.0, "SCREENING 1", -7, "TREATMENT", "2013-10-01", -7], [398, "CDISCPILOT01", "QS", "01-701-1345", 1008, "MHITM08", "EMOTIONAL INCONTINENCE", "MHIS-NACC", "", "ABSENT", "", "0", 0, "", "", "", "", "", 1.0, "SCREENING 1", -7, "TREATMENT", "2013-10-01", -7], [399, "CDISCPILOT01", "QS", "01-701-1345", 1009, "MHITM09", "HISTORY OF HYPERTENSION", "MHIS-NACC", "", "ABSENT", "", "0", 0, "", "", "", "", "", 1.0, "SCREENING 1", -7, "TREATMENT", "2013-10-01", -7], [400, "CDISCPILOT01", "QS", "01-701-1345", 1010, "MHITM10", "HISTORY OF STROKES", "MHIS-NACC", "", "ABSENT", "", "0", 0, "", "", "", "", "", 1.0, "SCREENING 1", -7, "TREATMENT", "2013-10-01", -7], [401, "CDISCPILOT01", "QS", "01-701-1345", 1011, "MHITM11", "EVIDENCE OF ASSOCIATED ATHEROSCLEROSIS", "MHIS-NACC", "", "ABSENT", "", "0", 0, "", "", "", "", "", 1.0, "SCREENING 1", -7, "TREATMENT", "2013-10-01", -7], [402, "CDISCPILOT01", "QS", "01-701-1345", 1012, "MHITM12", "FOCAL NEUROLOGICAL SYMPTOMS", "MHIS-NACC", "", "ABSENT", "", "0", 0, "", "", "", "", "", 1.0, "SCREENING 1", -7, "TREATMENT", "2013-10-01", -7], [403, "CDISCPILOT01", "QS", "01-701-1345", 1013, "MHITM13", "FOCAL NEUROLOGICAL SIGNS", "MHIS-NACC", "", "ABSENT", "", "0", 0, "", "", "", "", "", 1.0, "SCREENING 1", -7, "TREATMENT", "2013-10-01", -7], [404, "CDISCPILOT01", "QS", "01-701-1360", 1001, "MHITM01", "ABRUPT ONSET", "MHIS-NACC", "", "ABSENT", "", "0", 0, "", "", "", "", "", 1.0, "SCREENING 1", -7, "TREATMENT", "2013-07-24", -7], [405, "CDISCPILOT01", "QS", "01-701-1360", 1002, "MHITM02", "STEPWISE DETERIORATION", "MHIS-NACC", "", "ABSENT", "", "0", 0, "", "", "", "", "", 1.0, "SCREENING 1", -7, "TREATMENT", "2013-07-24", -7], [406, "CDISCPILOT01", "QS", "01-701-1360", 1003, "MHITM03", "FLUCTUATING COURSE", "MHIS-NACC", "", "ABSENT", "", "0", 0, "", "", "", "", "", 1.0, "SCREENING 1", -7, "TREATMENT", "2013-07-24", -7], [407, "CDISCPILOT01", "QS", "01-701-1360", 1004, "MHITM04", "NOCTURNAL CONFUSION", "MHIS-NACC", "", "ABSENT", "", "0", 0, "", "", "", "", "", 1.0, "SCREENING 1", -7, "TREATMENT", "2013-07-24", -7], [408, "CDISCPILOT01", "QS", "01-701-1360", 1005, "MHITM05", "RELATIVE PRESERVATION OF PERSONALITY", "MHIS-NACC", "", "ABSENT", "", "0", 0, "", "", "", "", "", 1.0, "SCREENING 1", -7, "TREATMENT", "2013-07-24", -7], [409, "CDISCPILOT01", "QS", "01-701-1360", 1006, "MHITM06", "DEPRESSION", "MHIS-NACC", "", "ABSENT", "", "0", 0, "", "", "", "", "", 1.0, "SCREENING 1", -7, "TREATMENT", "2013-07-24", -7], [410, "CDISCPILOT01", "QS", "01-701-1360", 1007, "MHITM07", "SOMATIC COMPLAINTS", "MHIS-NACC", "", "PRESENT", "", "1", 1, "", "", "", "", "", 1.0, "SCREENING 1", -7, "TREATMENT", "2013-07-24", -7], [411, "CDISCPILOT01", "QS", "01-701-1360", 1008, "MHITM08", "EMOTIONAL INCONTINENCE", "MHIS-NACC", "", "ABSENT", "", "0", 0, "", "", "", "", "", 1.0, "SCREENING 1", -7, "TREATMENT", "2013-07-24", -7], [412, "CDISCPILOT01", "QS", "01-701-1360", 1009, "MHITM09", "HISTORY OF HYPERTENSION", "MHIS-NACC", "", "ABSENT", "", "0", 0, "", "", "", "", "", 1.0, "SCREENING 1", -7, "TREATMENT", "2013-07-24", -7], [413, "CDISCPILOT01", "QS", "01-701-1360", 1010, "MHITM10", "HISTORY OF STROKES", "MHIS-NACC", "", "ABSENT", "", "0", 0, "", "", "", "", "", 1.0, "SCREENING 1", -7, "TREATMENT", "2013-07-24", -7], [414, "CDISCPILOT01", "QS", "01-701-1360", 1011, "MHITM11", "EVIDENCE OF ASSOCIATED ATHEROSCLEROSIS", "MHIS-NACC", "", "ABSENT", "", "0", 0, "", "", "", "", "", 1.0, "SCREENING 1", -7, "TREATMENT", "2013-07-24", -7], [415, "CDISCPILOT01", "QS", "01-701-1360", 1012, "MHITM12", "FOCAL NEUROLOGICAL SYMPTOMS", "MHIS-NACC", "", "ABSENT", "", "0", 0, "", "", "", "", "", 1.0, "SCREENING 1", -7, "TREATMENT", "2013-07-24", -7], [416, "CDISCPILOT01", "QS", "01-701-1360", 1013, "MHITM13", "FOCAL NEUROLOGICAL SIGNS", "MHIS-NACC", "", "ABSENT", "", "0", 0, "", "", "", "", "", 1.0, "SCREENING 1", -7, "TREATMENT", "2013-07-24", -7], [417, "CDISCPILOT01", "QS", "01-701-1363", 1001, "MHITM01", "ABRUPT ONSET", "MHIS-NACC", "", "ABSENT", "", "0", 0, "", "", "", "", "", 1.0, "SCREENING 1", -7, "TREATMENT", "2013-05-20", -10], [418, "CDISCPILOT01", "QS", "01-701-1363", 1002, "MHITM02", "STEPWISE DETERIORATION", "MHIS-NACC", "", "ABSENT", "", "0", 0, "", "", "", "", "", 1.0, "SCREENING 1", -7, "TREATMENT", "2013-05-20", -10], [419, "CDISCPILOT01", "QS", "01-701-1363", 1003, "MHITM03", "FLUCTUATING COURSE", "MHIS-NACC", "", "ABSENT", "", "0", 0, "", "", "", "", "", 1.0, "SCREENING 1", -7, "TREATMENT", "2013-05-20", -10], [420, "CDISCPILOT01", "QS", "01-701-1363", 1004, "MHITM04", "NOCTURNAL CONFUSION", "MHIS-NACC", "", "ABSENT", "", "0", 0, "", "", "", "", "", 1.0, "SCREENING 1", -7, "TREATMENT", "2013-05-20", -10], [421, "CDISCPILOT01", "QS", "01-701-1363", 1005, "MHITM05", "RELATIVE PRESERVATION OF PERSONALITY", "MHIS-NACC", "", "ABSENT", "", "0", 0, "", "", "", "", "", 1.0, "SCREENING 1", -7, "TREATMENT", "2013-05-20", -10], [422, "CDISCPILOT01", "QS", "01-701-1363", 1006, "MHITM06", "DEPRESSION", "MHIS-NACC", "", "ABSENT", "", "0", 0, "", "", "", "", "", 1.0, "SCREENING 1", -7, "TREATMENT", "2013-05-20", -10], [423, "CDISCPILOT01", "QS", "01-701-1363", 1007, "MHITM07", "SOMATIC COMPLAINTS", "MHIS-NACC", "", "PRESENT", "", "1", 1, "", "", "", "", "", 1.0, "SCREENING 1", -7, "TREATMENT", "2013-05-20", -10], [424, "CDISCPILOT01", "QS", "01-701-1363", 1008, "MHITM08", "EMOTIONAL INCONTINENCE", "MHIS-NACC", "", "ABSENT", "", "0", 0, "", "", "", "", "", 1.0, "SCREENING 1", -7, "TREATMENT", "2013-05-20", -10], [425, "CDISCPILOT01", "QS", "01-701-1363", 1009, "MHITM09", "HISTORY OF HYPERTENSION", "MHIS-NACC", "", "ABSENT", "", "0", 0, "", "", "", "", "", 1.0, "SCREENING 1", -7, "TREATMENT", "2013-05-20", -10], [426, "CDISCPILOT01", "QS", "01-701-1363", 1010, "MHITM10", "HISTORY OF STROKES", "MHIS-NACC", "", "ABSENT", "", "0", 0, "", "", "", "", "", 1.0, "SCREENING 1", -7, "TREATMENT", "2013-05-20", -10], [427, "CDISCPILOT01", "QS", "01-701-1363", 1011, "MHITM11", "EVIDENCE OF ASSOCIATED ATHEROSCLEROSIS", "MHIS-NACC", "", "ABSENT", "", "0", 0, "", "", "", "", "", 1.0, "SCREENING 1", -7, "TREATMENT", "2013-05-20", -10], [428, "CDISCPILOT01", "QS", "01-701-1363", 1012, "MHITM12", "FOCAL NEUROLOGICAL SYMPTOMS", "MHIS-NACC", "", "ABSENT", "", "0", 0, "", "", "", "", "", 1.0, "SCREENING 1", -7, "TREATMENT", "2013-05-20", -10], [429, "CDISCPILOT01", "QS", "01-701-1363", 1013, "MHITM13", "FOCAL NEUROLOGICAL SIGNS", "MHIS-NACC", "", "ABSENT", "", "0", 0, "", "", "", "", "", 1.0, "SCREENING 1", -7, "TREATMENT", "2013-05-20", -10], [430, "CDISCPILOT01", "QS", "01-701-1383", 1001, "MHITM01", "ABRUPT ONSET", "MHIS-NACC", "", "ABSENT", "", "0", 0, "", "", "", "", "", 1.0, "SCREENING 1", -7, "TREATMENT", "2013-01-22", -13], [431, "CDISCPILOT01", "QS", "01-701-1383", 1002, "MHITM02", "STEPWISE DETERIORATION", "MHIS-NACC", "", "ABSENT", "", "0", 0, "", "", "", "", "", 1.0, "SCREENING 1", -7, "TREATMENT", "2013-01-22", -13], [432, "CDISCPILOT01", "QS", "01-701-1383", 1003, "MHITM03", "FLUCTUATING COURSE", "MHIS-NACC", "", "ABSENT", "", "0", 0, "", "", "", "", "", 1.0, "SCREENING 1", -7, "TREATMENT", "2013-01-22", -13], [433, "CDISCPILOT01", "QS", "01-701-1383", 1004, "MHITM04", "NOCTURNAL CONFUSION", "MHIS-NACC", "", "ABSENT", "", "0", 0, "", "", "", "", "", 1.0, "SCREENING 1", -7, "TREATMENT", "2013-01-22", -13], [434, "CDISCPILOT01", "QS", "01-701-1383", 1005, "MHITM05", "RELATIVE PRESERVATION OF PERSONALITY", "MHIS-NACC", "", "ABSENT", "", "0", 0, "", "", "", "", "", 1.0, "SCREENING 1", -7, "TREATMENT", "2013-01-22", -13], [435, "CDISCPILOT01", "QS", "01-701-1383", 1006, "MHITM06", "DEPRESSION", "MHIS-NACC", "", "ABSENT", "", "0", 0, "", "", "", "", "", 1.0, "SCREENING 1", -7, "TREATMENT", "2013-01-22", -13], [436, "CDISCPILOT01", "QS", "01-701-1383", 1007, "MHITM07", "SOMATIC COMPLAINTS", "MHIS-NACC", "", "PRESENT", "", "1", 1, "", "", "", "", "", 1.0, "SCREENING 1", -7, "TREATMENT", "2013-01-22", -13], [437, "CDISCPILOT01", "QS", "01-701-1383", 1008, "MHITM08", "EMOTIONAL INCONTINENCE", "MHIS-NACC", "", "ABSENT", "", "0", 0, "", "", "", "", "", 1.0, "SCREENING 1", -7, "TREATMENT", "2013-01-22", -13], [438, "CDISCPILOT01", "QS", "01-701-1383", 1009, "MHITM09", "HISTORY OF HYPERTENSION", "MHIS-NACC", "", "ABSENT", "", "0", 0, "", "", "", "", "", 1.0, "SCREENING 1", -7, "TREATMENT", "2013-01-22", -13], [439, "CDISCPILOT01", "QS", "01-701-1383", 1010, "MHITM10", "HISTORY OF STROKES", "MHIS-NACC", "", "ABSENT", "", "0", 0, "", "", "", "", "", 1.0, "SCREENING 1", -7, "TREATMENT", "2013-01-22", -13], [440, "CDISCPILOT01", "QS", "01-701-1383", 1011, "MHITM11", "EVIDENCE OF ASSOCIATED ATHEROSCLEROSIS", "MHIS-NACC", "", "ABSENT", "", "0", 0, "", "", "", "", "", 1.0, "SCREENING 1", -7, "TREATMENT", "2013-01-22", -13], [441, "CDISCPILOT01", "QS", "01-701-1383", 1012, "MHITM12", "FOCAL NEUROLOGICAL SYMPTOMS", "MHIS-NACC", "", "ABSENT", "", "0", 0, "", "", "", "", "", 1.0, "SCREENING 1", -7, "TREATMENT", "2013-01-22", -13], [442, "CDISCPILOT01", "QS", "01-701-1383", 1013, "MHITM13", "FOCAL NEUROLOGICAL SIGNS", "MHIS-NACC", "", "ABSENT", "", "0", 0, "", "", "", "", "", 1.0, "SCREENING 1", -7, "TREATMENT", "2013-01-22", -13], [443, "CDISCPILOT01", "QS", "01-701-1387", 1001, "MHITM01", "ABRUPT ONSET", "MHIS-NACC", "", "ABSENT", "", "0", 0, "", "", "", "", "", 1.0, "SCREENING 1", -7, "TREATMENT", "2014-02-23", -17], [444, "CDISCPILOT01", "QS", "01-701-1387", 1002, "MHITM02", "STEPWISE DETERIORATION", "MHIS-NACC", "", "ABSENT", "", "0", 0, "", "", "", "", "", 1.0, "SCREENING 1", -7, "TREATMENT", "2014-02-23", -17], [445, "CDISCPILOT01", "QS", "01-701-1387", 1003, "MHITM03", "FLUCTUATING COURSE", "MHIS-NACC", "", "ABSENT", "", "0", 0, "", "", "", "", "", 1.0, "SCREENING 1", -7, "TREATMENT", "2014-02-23", -17], [446, "CDISCPILOT01", "QS", "01-701-1387", 1004, "MHITM04", "NOCTURNAL CONFUSION", "MHIS-NACC", "", "ABSENT", "", "0", 0, "", "", "", "", "", 1.0, "SCREENING 1", -7, "TREATMENT", "2014-02-23", -17], [447, "CDISCPILOT01", "QS", "01-701-1387", 1005, "MHITM05", "RELATIVE PRESERVATION OF PERSONALITY", "MHIS-NACC", "", "ABSENT", "", "0", 0, "", "", "", "", "", 1.0, "SCREENING 1", -7, "TREATMENT", "2014-02-23", -17], [448, "CDISCPILOT01", "QS", "01-701-1387", 1006, "MHITM06", "DEPRESSION", "MHIS-NACC", "", "ABSENT", "", "0", 0, "", "", "", "", "", 1.0, "SCREENING 1", -7, "TREATMENT", "2014-02-23", -17], [449, "CDISCPILOT01", "QS", "01-701-1387", 1007, "MHITM07", "SOMATIC COMPLAINTS", "MHIS-NACC", "", "ABSENT", "", "0", 0, "", "", "", "", "", 1.0, "SCREENING 1", -7, "TREATMENT", "2014-02-23", -17], [450, "CDISCPILOT01", "QS", "01-701-1387", 1008, "MHITM08", "EMOTIONAL INCONTINENCE", "MHIS-NACC", "", "ABSENT", "", "0", 0, "", "", "", "", "", 1.0, "SCREENING 1", -7, "TREATMENT", "2014-02-23", -17], [451, "CDISCPILOT01", "QS", "01-701-1387", 1009, "MHITM09", "HISTORY OF HYPERTENSION", "MHIS-NACC", "", "ABSENT", "", "0", 0, "", "", "", "", "", 1.0, "SCREENING 1", -7, "TREATMENT", "2014-02-23", -17], [452, "CDISCPILOT01", "QS", "01-701-1387", 1010, "MHITM10", "HISTORY OF STROKES", "MHIS-NACC", "", "ABSENT", "", "0", 0, "", "", "", "", "", 1.0, "SCREENING 1", -7, "TREATMENT", "2014-02-23", -17], [453, "CDISCPILOT01", "QS", "01-701-1387", 1011, "MHITM11", "EVIDENCE OF ASSOCIATED ATHEROSCLEROSIS", "MHIS-NACC", "", "ABSENT", "", "0", 0, "", "", "", "", "", 1.0, "SCREENING 1", -7, "TREATMENT", "2014-02-23", -17], [454, "CDISCPILOT01", "QS", "01-701-1387", 1012, "MHITM12", "FOCAL NEUROLOGICAL SYMPTOMS", "MHIS-NACC", "", "ABSENT", "", "0", 0, "", "", "", "", "", 1.0, "SCREENING 1", -7, "TREATMENT", "2014-02-23", -17], [455, "CDISCPILOT01", "QS", "01-701-1387", 1013, "MHITM13", "FOCAL NEUROLOGICAL SIGNS", "MHIS-NACC", "", "ABSENT", "", "0", 0, "", "", "", "", "", 1.0, "SCREENING 1", -7, "TREATMENT", "2014-02-23", -17], [456, "CDISCPILOT01", "QS", "01-701-1392", 1001, "MHITM01", "ABRUPT ONSET", "MHIS-NACC", "", "ABSENT", "", "0", 0, "", "", "", "", "", 1.0, "SCREENING 1", -7, "TREATMENT", "2012-10-17", -11], [457, "CDISCPILOT01", "QS", "01-701-1392", 1002, "MHITM02", "STEPWISE DETERIORATION", "MHIS-NACC", "", "ABSENT", "", "0", 0, "", "", "", "", "", 1.0, "SCREENING 1", -7, "TREATMENT", "2012-10-17", -11], [458, "CDISCPILOT01", "QS", "01-701-1392", 1003, "MHITM03", "FLUCTUATING COURSE", "MHIS-NACC", "", "ABSENT", "", "0", 0, "", "", "", "", "", 1.0, "SCREENING 1", -7, "TREATMENT", "2012-10-17", -11], [459, "CDISCPILOT01", "QS", "01-701-1392", 1004, "MHITM04", "NOCTURNAL CONFUSION", "MHIS-NACC", "", "ABSENT", "", "0", 0, "", "", "", "", "", 1.0, "SCREENING 1", -7, "TREATMENT", "2012-10-17", -11], [460, "CDISCPILOT01", "QS", "01-701-1392", 1005, "MHITM05", "RELATIVE PRESERVATION OF PERSONALITY", "MHIS-NACC", "", "ABSENT", "", "0", 0, "", "", "", "", "", 1.0, "SCREENING 1", -7, "TREATMENT", "2012-10-17", -11], [461, "CDISCPILOT01", "QS", "01-701-1392", 1006, "MHITM06", "DEPRESSION", "MHIS-NACC", "", "ABSENT", "", "0", 0, "", "", "", "", "", 1.0, "SCREENING 1", -7, "TREATMENT", "2012-10-17", -11], [462, "CDISCPILOT01", "QS", "01-701-1392", 1007, "MHITM07", "SOMATIC COMPLAINTS", "MHIS-NACC", "", "ABSENT", "", "0", 0, "", "", "", "", "", 1.0, "SCREENING 1", -7, "TREATMENT", "2012-10-17", -11], [463, "CDISCPILOT01", "QS", "01-701-1392", 1008, "MHITM08", "EMOTIONAL INCONTINENCE", "MHIS-NACC", "", "ABSENT", "", "0", 0, "", "", "", "", "", 1.0, "SCREENING 1", -7, "TREATMENT", "2012-10-17", -11], [464, "CDISCPILOT01", "QS", "01-701-1392", 1009, "MHITM09", "HISTORY OF HYPERTENSION", "MHIS-NACC", "", "PRESENT", "", "1", 1, "", "", "", "", "", 1.0, "SCREENING 1", -7, "TREATMENT", "2012-10-17", -11], [465, "CDISCPILOT01", "QS", "01-701-1392", 1010, "MHITM10", "HISTORY OF STROKES", "MHIS-NACC", "", "ABSENT", "", "0", 0, "", "", "", "", "", 1.0, "SCREENING 1", -7, "TREATMENT", "2012-10-17", -11], [466, "CDISCPILOT01", "QS", "01-701-1392", 1011, "MHITM11", "EVIDENCE OF ASSOCIATED ATHEROSCLEROSIS", "MHIS-NACC", "", "ABSENT", "", "0", 0, "", "", "", "", "", 1.0, "SCREENING 1", -7, "TREATMENT", "2012-10-17", -11], [467, "CDISCPILOT01", "QS", "01-701-1392", 1012, "MHITM12", "FOCAL NEUROLOGICAL SYMPTOMS", "MHIS-NACC", "", "ABSENT", "", "0", 0, "", "", "", "", "", 1.0, "SCREENING 1", -7, "TREATMENT", "2012-10-17", -11], [468, "CDISCPILOT01", "QS", "01-701-1392", 1013, "MHITM13", "FOCAL NEUROLOGICAL SIGNS", "MHIS-NACC", "", "ABSENT", "", "0", 0, "", "", "", "", "", 1.0, "SCREENING 1", -7, "TREATMENT", "2012-10-17", -11], [469, "CDISCPILOT01", "QS", "01-701-1415", 1001, "MHITM01", "ABRUPT ONSET", "MHIS-NACC", "", "ABSENT", "", "0", 0, "", "", "", "", "", 1.0, "SCREENING 1", -7, "TREATMENT", "2013-09-15", -8], [470, "CDISCPILOT01", "QS", "01-701-1415", 1002, "MHITM02", "STEPWISE DETERIORATION", "MHIS-NACC", "", "ABSENT", "", "0", 0, "", "", "", "", "", 1.0, "SCREENING 1", -7, "TREATMENT", "2013-09-15", -8], [471, "CDISCPILOT01", "QS", "01-701-1415", 1003, "MHITM03", "FLUCTUATING COURSE", "MHIS-NACC", "", "ABSENT", "", "0", 0, "", "", "", "", "", 1.0, "SCREENING 1", -7, "TREATMENT", "2013-09-15", -8], [472, "CDISCPILOT01", "QS", "01-701-1415", 1004, "MHITM04", "NOCTURNAL CONFUSION", "MHIS-NACC", "", "ABSENT", "", "0", 0, "", "", "", "", "", 1.0, "SCREENING 1", -7, "TREATMENT", "2013-09-15", -8], [473, "CDISCPILOT01", "QS", "01-701-1415", 1005, "MHITM05", "RELATIVE PRESERVATION OF PERSONALITY", "MHIS-NACC", "", "ABSENT", "", "0", 0, "", "", "", "", "", 1.0, "SCREENING 1", -7, "TREATMENT", "2013-09-15", -8], [474, "CDISCPILOT01", "QS", "01-701-1415", 1006, "MHITM06", "DEPRESSION", "MHIS-NACC", "", "ABSENT", "", "0", 0, "", "", "", "", "", 1.0, "SCREENING 1", -7, "TREATMENT", "2013-09-15", -8], [475, "CDISCPILOT01", "QS", "01-701-1415", 1007, "MHITM07", "SOMATIC COMPLAINTS", "MHIS-NACC", "", "PRESENT", "", "1", 1, "", "", "", "", "", 1.0, "SCREENING 1", -7, "TREATMENT", "2013-09-15", -8], [476, "CDISCPILOT01", "QS", "01-701-1415", 1008, "MHITM08", "EMOTIONAL INCONTINENCE", "MHIS-NACC", "", "ABSENT", "", "0", 0, "", "", "", "", "", 1.0, "SCREENING 1", -7, "TREATMENT", "2013-09-15", -8], [477, "CDISCPILOT01", "QS", "01-701-1415", 1009, "MHITM09", "HISTORY OF HYPERTENSION", "MHIS-NACC", "", "ABSENT", "", "0", 0, "", "", "", "", "", 1.0, "SCREENING 1", -7, "TREATMENT", "2013-09-15", -8], [478, "CDISCPILOT01", "QS", "01-701-1415", 1010, "MHITM10", "HISTORY OF STROKES", "MHIS-NACC", "", "ABSENT", "", "0", 0, "", "", "", "", "", 1.0, "SCREENING 1", -7, "TREATMENT", "2013-09-15", -8], [479, "CDISCPILOT01", "QS", "01-701-1415", 1011, "MHITM11", "EVIDENCE OF ASSOCIATED ATHEROSCLEROSIS", "MHIS-NACC", "", "ABSENT", "", "0", 0, "", "", "", "", "", 1.0, "SCREENING 1", -7, "TREATMENT", "2013-09-15", -8], [480, "CDISCPILOT01", "QS", "01-701-1415", 1012, "MHITM12", "FOCAL NEUROLOGICAL SYMPTOMS", "MHIS-NACC", "", "ABSENT", "", "0", 0, "", "", "", "", "", 1.0, "SCREENING 1", -7, "TREATMENT", "2013-09-15", -8], [481, "CDISCPILOT01", "QS", "01-701-1415", 1013, "MHITM13", "FOCAL NEUROLOGICAL SIGNS", "MHIS-NACC", "", "ABSENT", "", "0", 0, "", "", "", "", "", 1.0, "SCREENING 1", -7, "TREATMENT", "2013-09-15", -8], [482, "CDISCPILOT01", "QS", "01-701-1429", 1001, "MHITM01", "ABRUPT ONSET", "MHIS-NACC", "", "ABSENT", "", "0", 0, "", "", "", "", "", 1.0, "SCREENING 1", -7, "TREATMENT", "2013-02-25", -22], [483, "CDISCPILOT01", "QS", "01-701-1429", 1002, "MHITM02", "STEPWISE DETERIORATION", "MHIS-NACC", "", "ABSENT", "", "0", 0, "", "", "", "", "", 1.0, "SCREENING 1", -7, "TREATMENT", "2013-02-25", -22], [484, "CDISCPILOT01", "QS", "01-701-1429", 1003, "MHITM03", "FLUCTUATING COURSE", "MHIS-NACC", "", "ABSENT", "", "0", 0, "", "", "", "", "", 1.0, "SCREENING 1", -7, "TREATMENT", "2013-02-25", -22], [485, "CDISCPILOT01", "QS", "01-701-1429", 1004, "MHITM04", "NOCTURNAL CONFUSION", "MHIS-NACC", "", "ABSENT", "", "0", 0, "", "", "", "", "", 1.0, "SCREENING 1", -7, "TREATMENT", "2013-02-25", -22], [486, "CDISCPILOT01", "QS", "01-701-1429", 1005, "MHITM05", "RELATIVE PRESERVATION OF PERSONALITY", "MHIS-NACC", "", "ABSENT", "", "0", 0, "", "", "", "", "", 1.0, "SCREENING 1", -7, "TREATMENT", "2013-02-25", -22], [487, "CDISCPILOT01", "QS", "01-701-1429", 1006, "MHITM06", "DEPRESSION", "MHIS-NACC", "", "ABSENT", "", "0", 0, "", "", "", "", "", 1.0, "SCREENING 1", -7, "TREATMENT", "2013-02-25", -22], [488, "CDISCPILOT01", "QS", "01-701-1429", 1007, "MHITM07", "SOMATIC COMPLAINTS", "MHIS-NACC", "", "PRESENT", "", "1", 1, "", "", "", "", "", 1.0, "SCREENING 1", -7, "TREATMENT", "2013-02-25", -22], [489, "CDISCPILOT01", "QS", "01-701-1429", 1008, "MHITM08", "EMOTIONAL INCONTINENCE", "MHIS-NACC", "", "ABSENT", "", "0", 0, "", "", "", "", "", 1.0, "SCREENING 1", -7, "TREATMENT", "2013-02-25", -22], [490, "CDISCPILOT01", "QS", "01-701-1429", 1009, "MHITM09", "HISTORY OF HYPERTENSION", "MHIS-NACC", "", "ABSENT", "", "0", 0, "", "", "", "", "", 1.0, "SCREENING 1", -7, "TREATMENT", "2013-02-25", -22], [491, "CDISCPILOT01", "QS", "01-701-1429", 1010, "MHITM10", "HISTORY OF STROKES", "MHIS-NACC", "", "ABSENT", "", "0", 0, "", "", "", "", "", 1.0, "SCREENING 1", -7, "TREATMENT", "2013-02-25", -22], [492, "CDISCPILOT01", "QS", "01-701-1429", 1011, "MHITM11", "EVIDENCE OF ASSOCIATED ATHEROSCLEROSIS", "MHIS-NACC", "", "ABSENT", "", "0", 0, "", "", "", "", "", 1.0, "SCREENING 1", -7, "TREATMENT", "2013-02-25", -22], [493, "CDISCPILOT01", "QS", "01-701-1429", 1012, "MHITM12", "FOCAL NEUROLOGICAL SYMPTOMS", "MHIS-NACC", "", "ABSENT", "", "0", 0, "", "", "", "", "", 1.0, "SCREENING 1", -7, "TREATMENT", "2013-02-25", -22], [494, "CDISCPILOT01", "QS", "01-701-1429", 1013, "MHITM13", "FOCAL NEUROLOGICAL SIGNS", "MHIS-NACC", "", "ABSENT", "", "0", 0, "", "", "", "", "", 1.0, "SCREENING 1", -7, "TREATMENT", "2013-02-25", -22], [495, "CDISCPILOT01", "QS", "01-701-1440", 1001, "MHITM01", "ABRUPT ONSET", "MHIS-NACC", "", "ABSENT", "", "0", 0, "", "", "", "", "", 1.0, "SCREENING 1", -7, "TREATMENT", "2013-07-24", -15], [496, "CDISCPILOT01", "QS", "01-701-1440", 1002, "MHITM02", "STEPWISE DETERIORATION", "MHIS-NACC", "", "ABSENT", "", "0", 0, "", "", "", "", "", 1.0, "SCREENING 1", -7, "TREATMENT", "2013-07-24", -15], [497, "CDISCPILOT01", "QS", "01-701-1440", 1003, "MHITM03", "FLUCTUATING COURSE", "MHIS-NACC", "", "ABSENT", "", "0", 0, "", "", "", "", "", 1.0, "SCREENING 1", -7, "TREATMENT", "2013-07-24", -15], [498, "CDISCPILOT01", "QS", "01-701-1440", 1004, "MHITM04", "NOCTURNAL CONFUSION", "MHIS-NACC", "", "ABSENT", "", "0", 0, "", "", "", "", "", 1.0, "SCREENING 1", -7, "TREATMENT", "2013-07-24", -15], [499, "CDISCPILOT01", "QS", "01-701-1440", 1005, "MHITM05", "RELATIVE PRESERVATION OF PERSONALITY", "MHIS-NACC", "", "ABSENT", "", "0", 0, "", "", "", "", "", 1.0, "SCREENING 1", -7, "TREATMENT", "2013-07-24", -15], [500, "CDISCPILOT01", "QS", "01-701-1440", 1006, "MHITM06", "DEPRESSION", "MHIS-NACC", "", "ABSENT", "", "0", 0, "", "", "", "", "", 1.0, "SCREENING 1", -7, "TREATMENT", "2013-07-24", -15], [501, "CDISCPILOT01", "QS", "01-701-1440", 1007, "MHITM07", "SOMATIC COMPLAINTS", "MHIS-NACC", "", "ABSENT", "", "0", 0, "", "", "", "", "", 1.0, "SCREENING 1", -7, "TREATMENT", "2013-07-24", -15], [502, "CDISCPILOT01", "QS", "01-701-1440", 1008, "MHITM08", "EMOTIONAL INCONTINENCE", "MHIS-NACC", "", "ABSENT", "", "0", 0, "", "", "", "", "", 1.0, "SCREENING 1", -7, "TREATMENT", "2013-07-24", -15], [503, "CDISCPILOT01", "QS", "01-701-1440", 1009, "MHITM09", "HISTORY OF HYPERTENSION", "MHIS-NACC", "", "ABSENT", "", "0", 0, "", "", "", "", "", 1.0, "SCREENING 1", -7, "TREATMENT", "2013-07-24", -15], [504, "CDISCPILOT01", "QS", "01-701-1440", 1010, "MHITM10", "HISTORY OF STROKES", "MHIS-NACC", "", "ABSENT", "", "0", 0, "", "", "", "", "", 1.0, "SCREENING 1", -7, "TREATMENT", "2013-07-24", -15], [505, "CDISCPILOT01", "QS", "01-701-1440", 1011, "MHITM11", "EVIDENCE OF ASSOCIATED ATHEROSCLEROSIS", "MHIS-NACC", "", "ABSENT", "", "0", 0, "", "", "", "", "", 1.0, "SCREENING 1", -7, "TREATMENT", "2013-07-24", -15], [506, "CDISCPILOT01", "QS", "01-701-1440", 1012, "MHITM12", "FOCAL NEUROLOGICAL SYMPTOMS", "MHIS-NACC", "", "ABSENT", "", "0", 0, "", "", "", "", "", 1.0, "SCREENING 1", -7, "TREATMENT", "2013-07-24", -15], [507, "CDISCPILOT01", "QS", "01-701-1440", 1013, "MHITM13", "FOCAL NEUROLOGICAL SIGNS", "MHIS-NACC", "", "ABSENT", "", "0", 0, "", "", "", "", "", 1.0, "SCREENING 1", -7, "TREATMENT", "2013-07-24", -15], [508, "CDISCPILOT01", "QS", "01-701-1442", 1001, "MHITM01", "ABRUPT ONSET", "MHIS-NACC", "", "ABSENT", "", "0", 0, "", "", "", "", "", 1.0, "SCREENING 1", -7, "TREATMENT", "2013-10-17", -9], [509, "CDISCPILOT01", "QS", "01-701-1442", 1002, "MHITM02", "STEPWISE DETERIORATION", "MHIS-NACC", "", "ABSENT", "", "0", 0, "", "", "", "", "", 1.0, "SCREENING 1", -7, "TREATMENT", "2013-10-17", -9], [510, "CDISCPILOT01", "QS", "01-701-1442", 1003, "MHITM03", "FLUCTUATING COURSE", "MHIS-NACC", "", "ABSENT", "", "0", 0, "", "", "", "", "", 1.0, "SCREENING 1", -7, "TREATMENT", "2013-10-17", -9], [511, "CDISCPILOT01", "QS", "01-701-1442", 1004, "MHITM04", "NOCTURNAL CONFUSION", "MHIS-NACC", "", "ABSENT", "", "0", 0, "", "", "", "", "", 1.0, "SCREENING 1", -7, "TREATMENT", "2013-10-17", -9], [512, "CDISCPILOT01", "QS", "01-701-1442", 1005, "MHITM05", "RELATIVE PRESERVATION OF PERSONALITY", "MHIS-NACC", "", "ABSENT", "", "0", 0, "", "", "", "", "", 1.0, "SCREENING 1", -7, "TREATMENT", "2013-10-17", -9], [513, "CDISCPILOT01", "QS", "01-701-1442", 1006, "MHITM06", "DEPRESSION", "MHIS-NACC", "", "ABSENT", "", "0", 0, "", "", "", "", "", 1.0, "SCREENING 1", -7, "TREATMENT", "2013-10-17", -9], [514, "CDISCPILOT01", "QS", "01-701-1442", 1007, "MHITM07", "SOMATIC COMPLAINTS", "MHIS-NACC", "", "PRESENT", "", "1", 1, "", "", "", "", "", 1.0, "SCREENING 1", -7, "TREATMENT", "2013-10-17", -9], [515, "CDISCPILOT01", "QS", "01-701-1442", 1008, "MHITM08", "EMOTIONAL INCONTINENCE", "MHIS-NACC", "", "ABSENT", "", "0", 0, "", "", "", "", "", 1.0, "SCREENING 1", -7, "TREATMENT", "2013-10-17", -9], [516, "CDISCPILOT01", "QS", "01-701-1442", 1009, "MHITM09", "HISTORY OF HYPERTENSION", "MHIS-NACC", "", "ABSENT", "", "0", 0, "", "", "", "", "", 1.0, "SCREENING 1", -7, "TREATMENT", "2013-10-17", -9], [517, "CDISCPILOT01", "QS", "01-701-1442", 1010, "MHITM10", "HISTORY OF STROKES", "MHIS-NACC", "", "ABSENT", "", "0", 0, "", "", "", "", "", 1.0, "SCREENING 1", -7, "TREATMENT", "2013-10-17", -9], [518, "CDISCPILOT01", "QS", "01-701-1442", 1011, "MHITM11", "EVIDENCE OF ASSOCIATED ATHEROSCLEROSIS", "MHIS-NACC", "", "ABSENT", "", "0", 0, "", "", "", "", "", 1.0, "SCREENING 1", -7, "TREATMENT", "2013-10-17", -9], [519, "CDISCPILOT01", "QS", "01-701-1442", 1012, "MHITM12", "FOCAL NEUROLOGICAL SYMPTOMS", "MHIS-NACC", "", "ABSENT", "", "0", 0, "", "", "", "", "", 1.0, "SCREENING 1", -7, "TREATMENT", "2013-10-17", -9], [520, "CDISCPILOT01", "QS", "01-701-1442", 1013, "MHITM13", "FOCAL NEUROLOGICAL SIGNS", "MHIS-NACC", "", "ABSENT", "", "0", 0, "", "", "", "", "", 1.0, "SCREENING 1", -7, "TREATMENT", "2013-10-17", -9], [521, "CDISCPILOT01", "QS", "01-701-1444", 1001, "MHITM01", "ABRUPT ONSET", "MHIS-NACC", "", "ABSENT", "", "0", 0, "", "", "", "", "", 1.0, "SCREENING 1", -7, "TREATMENT", "2012-12-31", -5], [522, "CDISCPILOT01", "QS", "01-701-1444", 1002, "MHITM02", "STEPWISE DETERIORATION", "MHIS-NACC", "", "ABSENT", "", "0", 0, "", "", "", "", "", 1.0, "SCREENING 1", -7, "TREATMENT", "2012-12-31", -5], [523, "CDISCPILOT01", "QS", "01-701-1444", 1003, "MHITM03", "FLUCTUATING COURSE", "MHIS-NACC", "", "ABSENT", "", "0", 0, "", "", "", "", "", 1.0, "SCREENING 1", -7, "TREATMENT", "2012-12-31", -5], [524, "CDISCPILOT01", "QS", "01-701-1444", 1004, "MHITM04", "NOCTURNAL CONFUSION", "MHIS-NACC", "", "ABSENT", "", "0", 0, "", "", "", "", "", 1.0, "SCREENING 1", -7, "TREATMENT", "2012-12-31", -5], [525, "CDISCPILOT01", "QS", "01-701-1444", 1005, "MHITM05", "RELATIVE PRESERVATION OF PERSONALITY", "MHIS-NACC", "", "ABSENT", "", "0", 0, "", "", "", "", "", 1.0, "SCREENING 1", -7, "TREATMENT", "2012-12-31", -5], [526, "CDISCPILOT01", "QS", "01-701-1444", 1006, "MHITM06", "DEPRESSION", "MHIS-NACC", "", "ABSENT", "", "0", 0, "", "", "", "", "", 1.0, "SCREENING 1", -7, "TREATMENT", "2012-12-31", -5], [527, "CDISCPILOT01", "QS", "01-701-1444", 1007, "MHITM07", "SOMATIC COMPLAINTS", "MHIS-NACC", "", "PRESENT", "", "1", 1, "", "", "", "", "", 1.0, "SCREENING 1", -7, "TREATMENT", "2012-12-31", -5], [528, "CDISCPILOT01", "QS", "01-701-1444", 1008, "MHITM08", "EMOTIONAL INCONTINENCE", "MHIS-NACC", "", "ABSENT", "", "0", 0, "", "", "", "", "", 1.0, "SCREENING 1", -7, "TREATMENT", "2012-12-31", -5], [529, "CDISCPILOT01", "QS", "01-701-1444", 1009, "MHITM09", "HISTORY OF HYPERTENSION", "MHIS-NACC", "", "ABSENT", "", "0", 0, "", "", "", "", "", 1.0, "SCREENING 1", -7, "TREATMENT", "2012-12-31", -5], [530, "CDISCPILOT01", "QS", "01-701-1444", 1010, "MHITM10", "HISTORY OF STROKES", "MHIS-NACC", "", "ABSENT", "", "0", 0, "", "", "", "", "", 1.0, "SCREENING 1", -7, "TREATMENT", "2012-12-31", -5], [531, "CDISCPILOT01", "QS", "01-701-1444", 1011, "MHITM11", "EVIDENCE OF ASSOCIATED ATHEROSCLEROSIS", "MHIS-NACC", "", "ABSENT", "", "0", 0, "", "", "", "", "", 1.0, "SCREENING 1", -7, "TREATMENT", "2012-12-31", -5], [532, "CDISCPILOT01", "QS", "01-701-1444", 1012, "MHITM12", "FOCAL NEUROLOGICAL SYMPTOMS", "MHIS-NACC", "", "ABSENT", "", "0", 0, "", "", "", "", "", 1.0, "SCREENING 1", -7, "TREATMENT", "2012-12-31", -5], [533, "CDISCPILOT01", "QS", "01-701-1444", 1013, "MHITM13", "FOCAL NEUROLOGICAL SIGNS", "MHIS-NACC", "", "ABSENT", "", "0", 0, "", "", "", "", "", 1.0, "SCREENING 1", -7, "TREATMENT", "2012-12-31", -5], [534, "CDISCPILOT01", "QS", "01-702-1082", 1001, "MHITM01", "ABRUPT ONSET", "MHIS-NACC", "", "ABSENT", "", "0", 0, "", "", "", "", "", 1.0, "SCREENING 1", -7, "TREATMENT", "2013-07-03", -23], [535, "CDISCPILOT01", "QS", "01-702-1082", 1002, "MHITM02", "STEPWISE DETERIORATION", "MHIS-NACC", "", "ABSENT", "", "0", 0, "", "", "", "", "", 1.0, "SCREENING 1", -7, "TREATMENT", "2013-07-03", -23], [536, "CDISCPILOT01", "QS", "01-702-1082", 1003, "MHITM03", "FLUCTUATING COURSE", "MHIS-NACC", "", "ABSENT", "", "0", 0, "", "", "", "", "", 1.0, "SCREENING 1", -7, "TREATMENT", "2013-07-03", -23], [537, "CDISCPILOT01", "QS", "01-702-1082", 1004, "MHITM04", "NOCTURNAL CONFUSION", "MHIS-NACC", "", "ABSENT", "", "0", 0, "", "", "", "", "", 1.0, "SCREENING 1", -7, "TREATMENT", "2013-07-03", -23], [538, "CDISCPILOT01", "QS", "01-702-1082", 1005, "MHITM05", "RELATIVE PRESERVATION OF PERSONALITY", "MHIS-NACC", "", "ABSENT", "", "0", 0, "", "", "", "", "", 1.0, "SCREENING 1", -7, "TREATMENT", "2013-07-03", -23], [539, "CDISCPILOT01", "QS", "01-702-1082", 1006, "MHITM06", "DEPRESSION", "MHIS-NACC", "", "ABSENT", "", "0", 0, "", "", "", "", "", 1.0, "SCREENING 1", -7, "TREATMENT", "2013-07-03", -23], [540, "CDISCPILOT01", "QS", "01-702-1082", 1007, "MHITM07", "SOMATIC COMPLAINTS", "MHIS-NACC", "", "ABSENT", "", "0", 0, "", "", "", "", "", 1.0, "SCREENING 1", -7, "TREATMENT", "2013-07-03", -23], [541, "CDISCPILOT01", "QS", "01-702-1082", 1008, "MHITM08", "EMOTIONAL INCONTINENCE", "MHIS-NACC", "", "ABSENT", "", "0", 0, "", "", "", "", "", 1.0, "SCREENING 1", -7, "TREATMENT", "2013-07-03", -23], [542, "CDISCPILOT01", "QS", "01-702-1082", 1009, "MHITM09", "HISTORY OF HYPERTENSION", "MHIS-NACC", "", "ABSENT", "", "0", 0, "", "", "", "", "", 1.0, "SCREENING 1", -7, "TREATMENT", "2013-07-03", -23], [543, "CDISCPILOT01", "QS", "01-702-1082", 1010, "MHITM10", "HISTORY OF STROKES", "MHIS-NACC", "", "ABSENT", "", "0", 0, "", "", "", "", "", 1.0, "SCREENING 1", -7, "TREATMENT", "2013-07-03", -23], [544, "CDISCPILOT01", "QS", "01-702-1082", 1011, "MHITM11", "EVIDENCE OF ASSOCIATED ATHEROSCLEROSIS", "MHIS-NACC", "", "ABSENT", "", "0", 0, "", "", "", "", "", 1.0, "SCREENING 1", -7, "TREATMENT", "2013-07-03", -23], [545, "CDISCPILOT01", "QS", "01-702-1082", 1012, "MHITM12", "FOCAL NEUROLOGICAL SYMPTOMS", "MHIS-NACC", "", "ABSENT", "", "0", 0, "", "", "", "", "", 1.0, "SCREENING 1", -7, "TREATMENT", "2013-07-03", -23], [546, "CDISCPILOT01", "QS", "01-702-1082", 1013, "MHITM13", "FOCAL NEUROLOGICAL SIGNS", "MHIS-NACC", "", "ABSENT", "", "0", 0, "", "", "", "", "", 1.0, "SCREENING 1", -7, "TREATMENT", "2013-07-03", -23], [547, "CDISCPILOT01", "QS", "01-703-1042", 1001, "MHITM01", "ABRUPT ONSET", "MHIS-NACC", "", "ABSENT", "", "0", 0, "", "", "", "", "", 1.0, "SCREENING 1", -7, "TREATMENT", "2013-02-23", -7], [548, "CDISCPILOT01", "QS", "01-703-1042", 1002, "MHITM02", "STEPWISE DETERIORATION", "MHIS-NACC", "", "ABSENT", "", "0", 0, "", "", "", "", "", 1.0, "SCREENING 1", -7, "TREATMENT", "2013-02-23", -7], [549, "CDISCPILOT01", "QS", "01-703-1042", 1003, "MHITM03", "FLUCTUATING COURSE", "MHIS-NACC", "", "ABSENT", "", "0", 0, "", "", "", "", "", 1.0, "SCREENING 1", -7, "TREATMENT", "2013-02-23", -7], [550, "CDISCPILOT01", "QS", "01-703-1042", 1004, "MHITM04", "NOCTURNAL CONFUSION", "MHIS-NACC", "", "ABSENT", "", "0", 0, "", "", "", "", "", 1.0, "SCREENING 1", -7, "TREATMENT", "2013-02-23", -7], [551, "CDISCPILOT01", "QS", "01-703-1042", 1005, "MHITM05", "RELATIVE PRESERVATION OF PERSONALITY", "MHIS-NACC", "", "ABSENT", "", "0", 0, "", "", "", "", "", 1.0, "SCREENING 1", -7, "TREATMENT", "2013-02-23", -7], [552, "CDISCPILOT01", "QS", "01-703-1042", 1006, "MHITM06", "DEPRESSION", "MHIS-NACC", "", "ABSENT", "", "0", 0, "", "", "", "", "", 1.0, "SCREENING 1", -7, "TREATMENT", "2013-02-23", -7], [553, "CDISCPILOT01", "QS", "01-703-1042", 1007, "MHITM07", "SOMATIC COMPLAINTS", "MHIS-NACC", "", "ABSENT", "", "0", 0, "", "", "", "", "", 1.0, "SCREENING 1", -7, "TREATMENT", "2013-02-23", -7], [554, "CDISCPILOT01", "QS", "01-703-1042", 1008, "MHITM08", "EMOTIONAL INCONTINENCE", "MHIS-NACC", "", "ABSENT", "", "0", 0, "", "", "", "", "", 1.0, "SCREENING 1", -7, "TREATMENT", "2013-02-23", -7], [555, "CDISCPILOT01", "QS", "01-703-1042", 1009, "MHITM09", "HISTORY OF HYPERTENSION", "MHIS-NACC", "", "ABSENT", "", "0", 0, "", "", "", "", "", 1.0, "SCREENING 1", -7, "TREATMENT", "2013-02-23", -7], [556, "CDISCPILOT01", "QS", "01-703-1042", 1010, "MHITM10", "HISTORY OF STROKES", "MHIS-NACC", "", "ABSENT", "", "0", 0, "", "", "", "", "", 1.0, "SCREENING 1", -7, "TREATMENT", "2013-02-23", -7], [557, "CDISCPILOT01", "QS", "01-703-1042", 1011, "MHITM11", "EVIDENCE OF ASSOCIATED ATHEROSCLEROSIS", "MHIS-NACC", "", "PRESENT", "", "1", 1, "", "", "", "", "", 1.0, "SCREENING 1", -7, "TREATMENT", "2013-02-23", -7], [558, "CDISCPILOT01", "QS", "01-703-1042", 1012, "MHITM12", "FOCAL NEUROLOGICAL SYMPTOMS", "MHIS-NACC", "", "ABSENT", "", "0", 0, "", "", "", "", "", 1.0, "SCREENING 1", -7, "TREATMENT", "2013-02-23", -7], [559, "CDISCPILOT01", "QS", "01-703-1042", 1013, "MHITM13", "FOCAL NEUROLOGICAL SIGNS", "MHIS-NACC", "", "ABSENT", "", "0", 0, "", "", "", "", "", 1.0, "SCREENING 1", -7, "TREATMENT", "2013-02-23", -7], [560, "CDISCPILOT01", "QS", "01-703-1076", 1001, "MHITM01", "ABRUPT ONSET", "MHIS-NACC", "", "ABSENT", "", "0", 0, "", "", "", "", "", 1.0, "SCREENING 1", -7, "TREATMENT", "2013-10-17", -8], [561, "CDISCPILOT01", "QS", "01-703-1076", 1002, "MHITM02", "STEPWISE DETERIORATION", "MHIS-NACC", "", "ABSENT", "", "0", 0, "", "", "", "", "", 1.0, "SCREENING 1", -7, "TREATMENT", "2013-10-17", -8], [562, "CDISCPILOT01", "QS", "01-703-1076", 1003, "MHITM03", "FLUCTUATING COURSE", "MHIS-NACC", "", "ABSENT", "", "0", 0, "", "", "", "", "", 1.0, "SCREENING 1", -7, "TREATMENT", "2013-10-17", -8], [563, "CDISCPILOT01", "QS", "01-703-1076", 1004, "MHITM04", "NOCTURNAL CONFUSION", "MHIS-NACC", "", "ABSENT", "", "0", 0, "", "", "", "", "", 1.0, "SCREENING 1", -7, "TREATMENT", "2013-10-17", -8], [564, "CDISCPILOT01", "QS", "01-703-1076", 1005, "MHITM05", "RELATIVE PRESERVATION OF PERSONALITY", "MHIS-NACC", "", "ABSENT", "", "0", 0, "", "", "", "", "", 1.0, "SCREENING 1", -7, "TREATMENT", "2013-10-17", -8], [565, "CDISCPILOT01", "QS", "01-703-1076", 1006, "MHITM06", "DEPRESSION", "MHIS-NACC", "", "ABSENT", "", "0", 0, "", "", "", "", "", 1.0, "SCREENING 1", -7, "TREATMENT", "2013-10-17", -8], [566, "CDISCPILOT01", "QS", "01-703-1076", 1007, "MHITM07", "SOMATIC COMPLAINTS", "MHIS-NACC", "", "ABSENT", "", "0", 0, "", "", "", "", "", 1.0, "SCREENING 1", -7, "TREATMENT", "2013-10-17", -8], [567, "CDISCPILOT01", "QS", "01-703-1076", 1008, "MHITM08", "EMOTIONAL INCONTINENCE", "MHIS-NACC", "", "ABSENT", "", "0", 0, "", "", "", "", "", 1.0, "SCREENING 1", -7, "TREATMENT", "2013-10-17", -8], [568, "CDISCPILOT01", "QS", "01-703-1076", 1009, "MHITM09", "HISTORY OF HYPERTENSION", "MHIS-NACC", "", "PRESENT", "", "1", 1, "", "", "", "", "", 1.0, "SCREENING 1", -7, "TREATMENT", "2013-10-17", -8], [569, "CDISCPILOT01", "QS", "01-703-1076", 1010, "MHITM10", "HISTORY OF STROKES", "MHIS-NACC", "", "ABSENT", "", "0", 0, "", "", "", "", "", 1.0, "SCREENING 1", -7, "TREATMENT", "2013-10-17", -8], [570, "CDISCPILOT01", "QS", "01-703-1076", 1011, "MHITM11", "EVIDENCE OF ASSOCIATED ATHEROSCLEROSIS", "MHIS-NACC", "", "ABSENT", "", "0", 0, "", "", "", "", "", 1.0, "SCREENING 1", -7, "TREATMENT", "2013-10-17", -8], [571, "CDISCPILOT01", "QS", "01-703-1076", 1012, "MHITM12", "FOCAL NEUROLOGICAL SYMPTOMS", "MHIS-NACC", "", "ABSENT", "", "0", 0, "", "", "", "", "", 1.0, "SCREENING 1", -7, "TREATMENT", "2013-10-17", -8], [572, "CDISCPILOT01", "QS", "01-703-1076", 1013, "MHITM13", "FOCAL NEUROLOGICAL SIGNS", "MHIS-NACC", "", "ABSENT", "", "0", 0, "", "", "", "", "", 1.0, "SCREENING 1", -7, "TREATMENT", "2013-10-17", -8], [573, "CDISCPILOT01", "QS", "01-703-1086", 1001, "MHITM01", "ABRUPT ONSET", "MHIS-NACC", "", "ABSENT", "", "0", 0, "", "", "", "", "", 1.0, "SCREENING 1", -7, "TREATMENT", "2012-08-22", -11], [574, "CDISCPILOT01", "QS", "01-703-1086", 1002, "MHITM02", "STEPWISE DETERIORATION", "MHIS-NACC", "", "ABSENT", "", "0", 0, "", "", "", "", "", 1.0, "SCREENING 1", -7, "TREATMENT", "2012-08-22", -11], [575, "CDISCPILOT01", "QS", "01-703-1086", 1003, "MHITM03", "FLUCTUATING COURSE", "MHIS-NACC", "", "ABSENT", "", "0", 0, "", "", "", "", "", 1.0, "SCREENING 1", -7, "TREATMENT", "2012-08-22", -11], [576, "CDISCPILOT01", "QS", "01-703-1086", 1004, "MHITM04", "NOCTURNAL CONFUSION", "MHIS-NACC", "", "ABSENT", "", "0", 0, "", "", "", "", "", 1.0, "SCREENING 1", -7, "TREATMENT", "2012-08-22", -11], [577, "CDISCPILOT01", "QS", "01-703-1086", 1005, "MHITM05", "RELATIVE PRESERVATION OF PERSONALITY", "MHIS-NACC", "", "PRESENT", "", "1", 1, "", "", "", "", "", 1.0, "SCREENING 1", -7, "TREATMENT", "2012-08-22", -11], [578, "CDISCPILOT01", "QS", "01-703-1086", 1006, "MHITM06", "DEPRESSION", "MHIS-NACC", "", "ABSENT", "", "0", 0, "", "", "", "", "", 1.0, "SCREENING 1", -7, "TREATMENT", "2012-08-22", -11], [579, "CDISCPILOT01", "QS", "01-703-1086", 1007, "MHITM07", "SOMATIC COMPLAINTS", "MHIS-NACC", "", "ABSENT", "", "0", 0, "", "", "", "", "", 1.0, "SCREENING 1", -7, "TREATMENT", "2012-08-22", -11], [580, "CDISCPILOT01", "QS", "01-703-1086", 1008, "MHITM08", "EMOTIONAL INCONTINENCE", "MHIS-NACC", "", "ABSENT", "", "0", 0, "", "", "", "", "", 1.0, "SCREENING 1", -7, "TREATMENT", "2012-08-22", -11], [581, "CDISCPILOT01", "QS", "01-703-1086", 1009, "MHITM09", "HISTORY OF HYPERTENSION", "MHIS-NACC", "", "ABSENT", "", "0", 0, "", "", "", "", "", 1.0, "SCREENING 1", -7, "TREATMENT", "2012-08-22", -11], [582, "CDISCPILOT01", "QS", "01-703-1086", 1010, "MHITM10", "HISTORY OF STROKES", "MHIS-NACC", "", "ABSENT", "", "0", 0, "", "", "", "", "", 1.0, "SCREENING 1", -7, "TREATMENT", "2012-08-22", -11], [583, "CDISCPILOT01", "QS", "01-703-1086", 1011, "MHITM11", "EVIDENCE OF ASSOCIATED ATHEROSCLEROSIS", "MHIS-NACC", "", "ABSENT", "", "0", 0, "", "", "", "", "", 1.0, "SCREENING 1", -7, "TREATMENT", "2012-08-22", -11], [584, "CDISCPILOT01", "QS", "01-703-1086", 1012, "MHITM12", "FOCAL NEUROLOGICAL SYMPTOMS", "MHIS-NACC", "", "ABSENT", "", "0", 0, "", "", "", "", "", 1.0, "SCREENING 1", -7, "TREATMENT", "2012-08-22", -11], [585, "CDISCPILOT01", "QS", "01-703-1086", 1013, "MHITM13", "FOCAL NEUROLOGICAL SIGNS", "MHIS-NACC", "", "ABSENT", "", "0", 0, "", "", "", "", "", 1.0, "SCREENING 1", -7, "TREATMENT", "2012-08-22", -11], [586, "CDISCPILOT01", "QS", "01-703-1096", 1001, "MHITM01", "ABRUPT ONSET", "MHIS-NACC", "", "ABSENT", "", "0", 0, "", "", "", "", "", 1.0, "SCREENING 1", -7, "TREATMENT", "2012-12-19", -37], [587, "CDISCPILOT01", "QS", "01-703-1096", 1002, "MHITM02", "STEPWISE DETERIORATION", "MHIS-NACC", "", "ABSENT", "", "0", 0, "", "", "", "", "", 1.0, "SCREENING 1", -7, "TREATMENT", "2012-12-19", -37], [588, "CDISCPILOT01", "QS", "01-703-1096", 1003, "MHITM03", "FLUCTUATING COURSE", "MHIS-NACC", "", "ABSENT", "", "0", 0, "", "", "", "", "", 1.0, "SCREENING 1", -7, "TREATMENT", "2012-12-19", -37], [589, "CDISCPILOT01", "QS", "01-703-1096", 1004, "MHITM04", "NOCTURNAL CONFUSION", "MHIS-NACC", "", "ABSENT", "", "0", 0, "", "", "", "", "", 1.0, "SCREENING 1", -7, "TREATMENT", "2012-12-19", -37], [590, "CDISCPILOT01", "QS", "01-703-1096", 1005, "MHITM05", "RELATIVE PRESERVATION OF PERSONALITY", "MHIS-NACC", "", "ABSENT", "", "0", 0, "", "", "", "", "", 1.0, "SCREENING 1", -7, "TREATMENT", "2012-12-19", -37], [591, "CDISCPILOT01", "QS", "01-703-1096", 1006, "MHITM06", "DEPRESSION", "MHIS-NACC", "", "ABSENT", "", "0", 0, "", "", "", "", "", 1.0, "SCREENING 1", -7, "TREATMENT", "2012-12-19", -37], [592, "CDISCPILOT01", "QS", "01-703-1096", 1007, "MHITM07", "SOMATIC COMPLAINTS", "MHIS-NACC", "", "ABSENT", "", "0", 0, "", "", "", "", "", 1.0, "SCREENING 1", -7, "TREATMENT", "2012-12-19", -37], [593, "CDISCPILOT01", "QS", "01-703-1096", 1008, "MHITM08", "EMOTIONAL INCONTINENCE", "MHIS-NACC", "", "ABSENT", "", "0", 0, "", "", "", "", "", 1.0, "SCREENING 1", -7, "TREATMENT", "2012-12-19", -37], [594, "CDISCPILOT01", "QS", "01-703-1096", 1009, "MHITM09", "HISTORY OF HYPERTENSION", "MHIS-NACC", "", "ABSENT", "", "0", 0, "", "", "", "", "", 1.0, "SCREENING 1", -7, "TREATMENT", "2012-12-19", -37], [595, "CDISCPILOT01", "QS", "01-703-1096", 1010, "MHITM10", "HISTORY OF STROKES", "MHIS-NACC", "", "ABSENT", "", "0", 0, "", "", "", "", "", 1.0, "SCREENING 1", -7, "TREATMENT", "2012-12-19", -37], [596, "CDISCPILOT01", "QS", "01-703-1096", 1011, "MHITM11", "EVIDENCE OF ASSOCIATED ATHEROSCLEROSIS", "MHIS-NACC", "", "ABSENT", "", "0", 0, "", "", "", "", "", 1.0, "SCREENING 1", -7, "TREATMENT", "2012-12-19", -37], [597, "CDISCPILOT01", "QS", "01-703-1096", 1012, "MHITM12", "FOCAL NEUROLOGICAL SYMPTOMS", "MHIS-NACC", "", "ABSENT", "", "0", 0, "", "", "", "", "", 1.0, "SCREENING 1", -7, "TREATMENT", "2012-12-19", -37], [598, "CDISCPILOT01", "QS", "01-703-1096", 1013, "MHITM13", "FOCAL NEUROLOGICAL SIGNS", "MHIS-NACC", "", "ABSENT", "", "0", 0, "", "", "", "", "", 1.0, "SCREENING 1", -7, "TREATMENT", "2012-12-19", -37], [599, "CDISCPILOT01", "QS", "01-703-1100", 1001, "MHITM01", "ABRUPT ONSET", "MHIS-NACC", "", "ABSENT", "", "0", 0, "", "", "", "", "", 1.0, "SCREENING 1", -7, "TREATMENT", "2013-02-28", -13], [600, "CDISCPILOT01", "QS", "01-703-1100", 1002, "MHITM02", "STEPWISE DETERIORATION", "MHIS-NACC", "", "ABSENT", "", "0", 0, "", "", "", "", "", 1.0, "SCREENING 1", -7, "TREATMENT", "2013-02-28", -13], [601, "CDISCPILOT01", "QS", "01-703-1100", 1003, "MHITM03", "FLUCTUATING COURSE", "MHIS-NACC", "", "ABSENT", "", "0", 0, "", "", "", "", "", 1.0, "SCREENING 1", -7, "TREATMENT", "2013-02-28", -13], [602, "CDISCPILOT01", "QS", "01-703-1100", 1004, "MHITM04", "NOCTURNAL CONFUSION", "MHIS-NACC", "", "PRESENT", "", "1", 1, "", "", "", "", "", 1.0, "SCREENING 1", -7, "TREATMENT", "2013-02-28", -13], [603, "CDISCPILOT01", "QS", "01-703-1100", 1005, "MHITM05", "RELATIVE PRESERVATION OF PERSONALITY", "MHIS-NACC", "", "ABSENT", "", "0", 0, "", "", "", "", "", 1.0, "SCREENING 1", -7, "TREATMENT", "2013-02-28", -13], [604, "CDISCPILOT01", "QS", "01-703-1100", 1006, "MHITM06", "DEPRESSION", "MHIS-NACC", "", "ABSENT", "", "0", 0, "", "", "", "", "", 1.0, "SCREENING 1", -7, "TREATMENT", "2013-02-28", -13], [605, "CDISCPILOT01", "QS", "01-703-1100", 1007, "MHITM07", "SOMATIC COMPLAINTS", "MHIS-NACC", "", "ABSENT", "", "0", 0, "", "", "", "", "", 1.0, "SCREENING 1", -7, "TREATMENT", "2013-02-28", -13], [606, "CDISCPILOT01", "QS", "01-703-1100", 1008, "MHITM08", "EMOTIONAL INCONTINENCE", "MHIS-NACC", "", "ABSENT", "", "0", 0, "", "", "", "", "", 1.0, "SCREENING 1", -7, "TREATMENT", "2013-02-28", -13], [607, "CDISCPILOT01", "QS", "01-703-1100", 1009, "MHITM09", "HISTORY OF HYPERTENSION", "MHIS-NACC", "", "ABSENT", "", "0", 0, "", "", "", "", "", 1.0, "SCREENING 1", -7, "TREATMENT", "2013-02-28", -13], [608, "CDISCPILOT01", "QS", "01-703-1100", 1010, "MHITM10", "HISTORY OF STROKES", "MHIS-NACC", "", "ABSENT", "", "0", 0, "", "", "", "", "", 1.0, "SCREENING 1", -7, "TREATMENT", "2013-02-28", -13], [609, "CDISCPILOT01", "QS", "01-703-1100", 1011, "MHITM11", "EVIDENCE OF ASSOCIATED ATHEROSCLEROSIS", "MHIS-NACC", "", "ABSENT", "", "0", 0, "", "", "", "", "", 1.0, "SCREENING 1", -7, "TREATMENT", "2013-02-28", -13], [610, "CDISCPILOT01", "QS", "01-703-1100", 1012, "MHITM12", "FOCAL NEUROLOGICAL SYMPTOMS", "MHIS-NACC", "", "ABSENT", "", "0", 0, "", "", "", "", "", 1.0, "SCREENING 1", -7, "TREATMENT", "2013-02-28", -13], [611, "CDISCPILOT01", "QS", "01-703-1100", 1013, "MHITM13", "FOCAL NEUROLOGICAL SIGNS", "MHIS-NACC", "", "ABSENT", "", "0", 0, "", "", "", "", "", 1.0, "SCREENING 1", -7, "TREATMENT", "2013-02-28", -13], [612, "CDISCPILOT01", "QS", "01-703-1119", 1001, "MHITM01", "ABRUPT ONSET", "MHIS-NACC", "", "ABSENT", "", "0", 0, "", "", "", "", "", 1.0, "SCREENING 1", -7, "TREATMENT", "2013-02-02", -18], [613, "CDISCPILOT01", "QS", "01-703-1119", 1002, "MHITM02", "STEPWISE DETERIORATION", "MHIS-NACC", "", "ABSENT", "", "0", 0, "", "", "", "", "", 1.0, "SCREENING 1", -7, "TREATMENT", "2013-02-02", -18], [614, "CDISCPILOT01", "QS", "01-703-1119", 1003, "MHITM03", "FLUCTUATING COURSE", "MHIS-NACC", "", "ABSENT", "", "0", 0, "", "", "", "", "", 1.0, "SCREENING 1", -7, "TREATMENT", "2013-02-02", -18], [615, "CDISCPILOT01", "QS", "01-703-1119", 1004, "MHITM04", "NOCTURNAL CONFUSION", "MHIS-NACC", "", "ABSENT", "", "0", 0, "", "", "", "", "", 1.0, "SCREENING 1", -7, "TREATMENT", "2013-02-02", -18], [616, "CDISCPILOT01", "QS", "01-703-1119", 1005, "MHITM05", "RELATIVE PRESERVATION OF PERSONALITY", "MHIS-NACC", "", "ABSENT", "", "0", 0, "", "", "", "", "", 1.0, "SCREENING 1", -7, "TREATMENT", "2013-02-02", -18], [617, "CDISCPILOT01", "QS", "01-703-1119", 1006, "MHITM06", "DEPRESSION", "MHIS-NACC", "", "ABSENT", "", "0", 0, "", "", "", "", "", 1.0, "SCREENING 1", -7, "TREATMENT", "2013-02-02", -18], [618, "CDISCPILOT01", "QS", "01-703-1119", 1007, "MHITM07", "SOMATIC COMPLAINTS", "MHIS-NACC", "", "ABSENT", "", "0", 0, "", "", "", "", "", 1.0, "SCREENING 1", -7, "TREATMENT", "2013-02-02", -18], [619, "CDISCPILOT01", "QS", "01-703-1119", 1008, "MHITM08", "EMOTIONAL INCONTINENCE", "MHIS-NACC", "", "ABSENT", "", "0", 0, "", "", "", "", "", 1.0, "SCREENING 1", -7, "TREATMENT", "2013-02-02", -18], [620, "CDISCPILOT01", "QS", "01-703-1119", 1009, "MHITM09", "HISTORY OF HYPERTENSION", "MHIS-NACC", "", "ABSENT", "", "0", 0, "", "", "", "", "", 1.0, "SCREENING 1", -7, "TREATMENT", "2013-02-02", -18], [621, "CDISCPILOT01", "QS", "01-703-1119", 1010, "MHITM10", "HISTORY OF STROKES", "MHIS-NACC", "", "ABSENT", "", "0", 0, "", "", "", "", "", 1.0, "SCREENING 1", -7, "TREATMENT", "2013-02-02", -18], [622, "CDISCPILOT01", "QS", "01-703-1119", 1011, "MHITM11", "EVIDENCE OF ASSOCIATED ATHEROSCLEROSIS", "MHIS-NACC", "", "PRESENT", "", "1", 1, "", "", "", "", "", 1.0, "SCREENING 1", -7, "TREATMENT", "2013-02-02", -18], [623, "CDISCPILOT01", "QS", "01-703-1119", 1012, "MHITM12", "FOCAL NEUROLOGICAL SYMPTOMS", "MHIS-NACC", "", "ABSENT", "", "0", 0, "", "", "", "", "", 1.0, "SCREENING 1", -7, "TREATMENT", "2013-02-02", -18], [624, "CDISCPILOT01", "QS", "01-703-1119", 1013, "MHITM13", "FOCAL NEUROLOGICAL SIGNS", "MHIS-NACC", "", "ABSENT", "", "0", 0, "", "", "", "", "", 1.0, "SCREENING 1", -7, "TREATMENT", "2013-02-02", -18], [625, "CDISCPILOT01", "QS", "01-703-1175", 1001, "MHITM01", "ABRUPT ONSET", "MHIS-NACC", "", "ABSENT", "", "0", 0, "", "", "", "", "", 1.0, "SCREENING 1", -7, "TREATMENT", "2013-12-13", -7], [626, "CDISCPILOT01", "QS", "01-703-1175", 1002, "MHITM02", "STEPWISE DETERIORATION", "MHIS-NACC", "", "ABSENT", "", "0", 0, "", "", "", "", "", 1.0, "SCREENING 1", -7, "TREATMENT", "2013-12-13", -7], [627, "CDISCPILOT01", "QS", "01-703-1175", 1003, "MHITM03", "FLUCTUATING COURSE", "MHIS-NACC", "", "ABSENT", "", "0", 0, "", "", "", "", "", 1.0, "SCREENING 1", -7, "TREATMENT", "2013-12-13", -7], [628, "CDISCPILOT01", "QS", "01-703-1175", 1004, "MHITM04", "NOCTURNAL CONFUSION", "MHIS-NACC", "", "ABSENT", "", "0", 0, "", "", "", "", "", 1.0, "SCREENING 1", -7, "TREATMENT", "2013-12-13", -7], [629, "CDISCPILOT01", "QS", "01-703-1175", 1005, "MHITM05", "RELATIVE PRESERVATION OF PERSONALITY", "MHIS-NACC", "", "ABSENT", "", "0", 0, "", "", "", "", "", 1.0, "SCREENING 1", -7, "TREATMENT", "2013-12-13", -7], [630, "CDISCPILOT01", "QS", "01-703-1175", 1006, "MHITM06", "DEPRESSION", "MHIS-NACC", "", "ABSENT", "", "0", 0, "", "", "", "", "", 1.0, "SCREENING 1", -7, "TREATMENT", "2013-12-13", -7], [631, "CDISCPILOT01", "QS", "01-703-1175", 1007, "MHITM07", "SOMATIC COMPLAINTS", "MHIS-NACC", "", "ABSENT", "", "0", 0, "", "", "", "", "", 1.0, "SCREENING 1", -7, "TREATMENT", "2013-12-13", -7], [632, "CDISCPILOT01", "QS", "01-703-1175", 1008, "MHITM08", "EMOTIONAL INCONTINENCE", "MHIS-NACC", "", "ABSENT", "", "0", 0, "", "", "", "", "", 1.0, "SCREENING 1", -7, "TREATMENT", "2013-12-13", -7], [633, "CDISCPILOT01", "QS", "01-703-1175", 1009, "MHITM09", "HISTORY OF HYPERTENSION", "MHIS-NACC", "", "ABSENT", "", "0", 0, "", "", "", "", "", 1.0, "SCREENING 1", -7, "TREATMENT", "2013-12-13", -7], [634, "CDISCPILOT01", "QS", "01-703-1175", 1010, "MHITM10", "HISTORY OF STROKES", "MHIS-NACC", "", "ABSENT", "", "0", 0, "", "", "", "", "", 1.0, "SCREENING 1", -7, "TREATMENT", "2013-12-13", -7], [635, "CDISCPILOT01", "QS", "01-703-1175", 1011, "MHITM11", "EVIDENCE OF ASSOCIATED ATHEROSCLEROSIS", "MHIS-NACC", "", "ABSENT", "", "0", 0, "", "", "", "", "", 1.0, "SCREENING 1", -7, "TREATMENT", "2013-12-13", -7], [636, "CDISCPILOT01", "QS", "01-703-1175", 1012, "MHITM12", "FOCAL NEUROLOGICAL SYMPTOMS", "MHIS-NACC", "", "ABSENT", "", "0", 0, "", "", "", "", "", 1.0, "SCREENING 1", -7, "TREATMENT", "2013-12-13", -7], [637, "CDISCPILOT01", "QS", "01-703-1175", 1013, "MHITM13", "FOCAL NEUROLOGICAL SIGNS", "MHIS-NACC", "", "ABSENT", "", "0", 0, "", "", "", "", "", 1.0, "SCREENING 1", -7, "TREATMENT", "2013-12-13", -7], [638, "CDISCPILOT01", "QS", "01-703-1182", 1001, "MHITM01", "ABRUPT ONSET", "MHIS-NACC", "", "ABSENT", "", "0", 0, "", "", "", "", "", 1.0, "SCREENING 1", -7, "TREATMENT", "2013-10-08", -9], [639, "CDISCPILOT01", "QS", "01-703-1182", 1002, "MHITM02", "STEPWISE DETERIORATION", "MHIS-NACC", "", "ABSENT", "", "0", 0, "", "", "", "", "", 1.0, "SCREENING 1", -7, "TREATMENT", "2013-10-08", -9], [640, "CDISCPILOT01", "QS", "01-703-1182", 1003, "MHITM03", "FLUCTUATING COURSE", "MHIS-NACC", "", "ABSENT", "", "0", 0, "", "", "", "", "", 1.0, "SCREENING 1", -7, "TREATMENT", "2013-10-08", -9], [641, "CDISCPILOT01", "QS", "01-703-1182", 1004, "MHITM04", "NOCTURNAL CONFUSION", "MHIS-NACC", "", "ABSENT", "", "0", 0, "", "", "", "", "", 1.0, "SCREENING 1", -7, "TREATMENT", "2013-10-08", -9], [642, "CDISCPILOT01", "QS", "01-703-1182", 1005, "MHITM05", "RELATIVE PRESERVATION OF PERSONALITY", "MHIS-NACC", "", "ABSENT", "", "0", 0, "", "", "", "", "", 1.0, "SCREENING 1", -7, "TREATMENT", "2013-10-08", -9], [643, "CDISCPILOT01", "QS", "01-703-1182", 1006, "MHITM06", "DEPRESSION", "MHIS-NACC", "", "ABSENT", "", "0", 0, "", "", "", "", "", 1.0, "SCREENING 1", -7, "TREATMENT", "2013-10-08", -9], [644, "CDISCPILOT01", "QS", "01-703-1182", 1007, "MHITM07", "SOMATIC COMPLAINTS", "MHIS-NACC", "", "ABSENT", "", "0", 0, "", "", "", "", "", 1.0, "SCREENING 1", -7, "TREATMENT", "2013-10-08", -9], [645, "CDISCPILOT01", "QS", "01-703-1182", 1008, "MHITM08", "EMOTIONAL INCONTINENCE", "MHIS-NACC", "", "ABSENT", "", "0", 0, "", "", "", "", "", 1.0, "SCREENING 1", -7, "TREATMENT", "2013-10-08", -9], [646, "CDISCPILOT01", "QS", "01-703-1182", 1009, "MHITM09", "HISTORY OF HYPERTENSION", "MHIS-NACC", "", "PRESENT", "", "1", 1, "", "", "", "", "", 1.0, "SCREENING 1", -7, "TREATMENT", "2013-10-08", -9], [647, "CDISCPILOT01", "QS", "01-703-1182", 1010, "MHITM10", "HISTORY OF STROKES", "MHIS-NACC", "", "ABSENT", "", "0", 0, "", "", "", "", "", 1.0, "SCREENING 1", -7, "TREATMENT", "2013-10-08", -9], [648, "CDISCPILOT01", "QS", "01-703-1182", 1011, "MHITM11", "EVIDENCE OF ASSOCIATED ATHEROSCLEROSIS", "MHIS-NACC", "", "ABSENT", "", "0", 0, "", "", "", "", "", 1.0, "SCREENING 1", -7, "TREATMENT", "2013-10-08", -9], [649, "CDISCPILOT01", "QS", "01-703-1182", 1012, "MHITM12", "FOCAL NEUROLOGICAL SYMPTOMS", "MHIS-NACC", "", "ABSENT", "", "0", 0, "", "", "", "", "", 1.0, "SCREENING 1", -7, "TREATMENT", "2013-10-08", -9], [650, "CDISCPILOT01", "QS", "01-703-1182", 1013, "MHITM13", "FOCAL NEUROLOGICAL SIGNS", "MHIS-NACC", "", "ABSENT", "", "0", 0, "", "", "", "", "", 1.0, "SCREENING 1", -7, "TREATMENT", "2013-10-08", -9], [651, "CDISCPILOT01", "QS", "01-703-1197", 1001, "MHITM01", "ABRUPT ONSET", "MHIS-NACC", "", "ABSENT", "", "0", 0, "", "", "", "", "", 1.0, "SCREENING 1", -7, "TREATMENT", "2013-06-01", -15], [652, "CDISCPILOT01", "QS", "01-703-1197", 1002, "MHITM02", "STEPWISE DETERIORATION", "MHIS-NACC", "", "ABSENT", "", "0", 0, "", "", "", "", "", 1.0, "SCREENING 1", -7, "TREATMENT", "2013-06-01", -15], [653, "CDISCPILOT01", "QS", "01-703-1197", 1003, "MHITM03", "FLUCTUATING COURSE", "MHIS-NACC", "", "ABSENT", "", "0", 0, "", "", "", "", "", 1.0, "SCREENING 1", -7, "TREATMENT", "2013-06-01", -15], [654, "CDISCPILOT01", "QS", "01-703-1197", 1004, "MHITM04", "NOCTURNAL CONFUSION", "MHIS-NACC", "", "ABSENT", "", "0", 0, "", "", "", "", "", 1.0, "SCREENING 1", -7, "TREATMENT", "2013-06-01", -15], [655, "CDISCPILOT01", "QS", "01-703-1197", 1005, "MHITM05", "RELATIVE PRESERVATION OF PERSONALITY", "MHIS-NACC", "", "ABSENT", "", "0", 0, "", "", "", "", "", 1.0, "SCREENING 1", -7, "TREATMENT", "2013-06-01", -15], [656, "CDISCPILOT01", "QS", "01-703-1197", 1006, "MHITM06", "DEPRESSION", "MHIS-NACC", "", "ABSENT", "", "0", 0, "", "", "", "", "", 1.0, "SCREENING 1", -7, "TREATMENT", "2013-06-01", -15], [657, "CDISCPILOT01", "QS", "01-703-1197", 1007, "MHITM07", "SOMATIC COMPLAINTS", "MHIS-NACC", "", "ABSENT", "", "0", 0, "", "", "", "", "", 1.0, "SCREENING 1", -7, "TREATMENT", "2013-06-01", -15], [658, "CDISCPILOT01", "QS", "01-703-1197", 1008, "MHITM08", "EMOTIONAL INCONTINENCE", "MHIS-NACC", "", "ABSENT", "", "0", 0, "", "", "", "", "", 1.0, "SCREENING 1", -7, "TREATMENT", "2013-06-01", -15], [659, "CDISCPILOT01", "QS", "01-703-1197", 1009, "MHITM09", "HISTORY OF HYPERTENSION", "MHIS-NACC", "", "PRESENT", "", "1", 1, "", "", "", "", "", 1.0, "SCREENING 1", -7, "TREATMENT", "2013-06-01", -15], [660, "CDISCPILOT01", "QS", "01-703-1197", 1010, "MHITM10", "HISTORY OF STROKES", "MHIS-NACC", "", "ABSENT", "", "0", 0, "", "", "", "", "", 1.0, "SCREENING 1", -7, "TREATMENT", "2013-06-01", -15], [661, "CDISCPILOT01", "QS", "01-703-1197", 1011, "MHITM11", "EVIDENCE OF ASSOCIATED ATHEROSCLEROSIS", "MHIS-NACC", "", "ABSENT", "", "0", 0, "", "", "", "", "", 1.0, "SCREENING 1", -7, "TREATMENT", "2013-06-01", -15], [662, "CDISCPILOT01", "QS", "01-703-1197", 1012, "MHITM12", "FOCAL NEUROLOGICAL SYMPTOMS", "MHIS-NACC", "", "ABSENT", "", "0", 0, "", "", "", "", "", 1.0, "SCREENING 1", -7, "TREATMENT", "2013-06-01", -15], [663, "CDISCPILOT01", "QS", "01-703-1197", 1013, "MHITM13", "FOCAL NEUROLOGICAL SIGNS", "MHIS-NACC", "", "ABSENT", "", "0", 0, "", "", "", "", "", 1.0, "SCREENING 1", -7, "TREATMENT", "2013-06-01", -15], [664, "CDISCPILOT01", "QS", "01-703-1210", 1001, "MHITM01", "ABRUPT ONSET", "MHIS-NACC", "", "ABSENT", "", "0", 0, "", "", "", "", "", 1.0, "SCREENING 1", -7, "TREATMENT", "2013-03-08", -8], [665, "CDISCPILOT01", "QS", "01-703-1210", 1002, "MHITM02", "STEPWISE DETERIORATION", "MHIS-NACC", "", "ABSENT", "", "0", 0, "", "", "", "", "", 1.0, "SCREENING 1", -7, "TREATMENT", "2013-03-08", -8], [666, "CDISCPILOT01", "QS", "01-703-1210", 1003, "MHITM03", "FLUCTUATING COURSE", "MHIS-NACC", "", "ABSENT", "", "0", 0, "", "", "", "", "", 1.0, "SCREENING 1", -7, "TREATMENT", "2013-03-08", -8], [667, "CDISCPILOT01", "QS", "01-703-1210", 1004, "MHITM04", "NOCTURNAL CONFUSION", "MHIS-NACC", "", "ABSENT", "", "0", 0, "", "", "", "", "", 1.0, "SCREENING 1", -7, "TREATMENT", "2013-03-08", -8], [668, "CDISCPILOT01", "QS", "01-703-1210", 1005, "MHITM05", "RELATIVE PRESERVATION OF PERSONALITY", "MHIS-NACC", "", "ABSENT", "", "0", 0, "", "", "", "", "", 1.0, "SCREENING 1", -7, "TREATMENT", "2013-03-08", -8], [669, "CDISCPILOT01", "QS", "01-703-1210", 1006, "MHITM06", "DEPRESSION", "MHIS-NACC", "", "ABSENT", "", "0", 0, "", "", "", "", "", 1.0, "SCREENING 1", -7, "TREATMENT", "2013-03-08", -8], [670, "CDISCPILOT01", "QS", "01-703-1210", 1007, "MHITM07", "SOMATIC COMPLAINTS", "MHIS-NACC", "", "ABSENT", "", "0", 0, "", "", "", "", "", 1.0, "SCREENING 1", -7, "TREATMENT", "2013-03-08", -8], [671, "CDISCPILOT01", "QS", "01-703-1210", 1008, "MHITM08", "EMOTIONAL INCONTINENCE", "MHIS-NACC", "", "ABSENT", "", "0", 0, "", "", "", "", "", 1.0, "SCREENING 1", -7, "TREATMENT", "2013-03-08", -8], [672, "CDISCPILOT01", "QS", "01-703-1210", 1009, "MHITM09", "HISTORY OF HYPERTENSION", "MHIS-NACC", "", "ABSENT", "", "0", 0, "", "", "", "", "", 1.0, "SCREENING 1", -7, "TREATMENT", "2013-03-08", -8], [673, "CDISCPILOT01", "QS", "01-703-1210", 1010, "MHITM10", "HISTORY OF STROKES", "MHIS-NACC", "", "ABSENT", "", "0", 0, "", "", "", "", "", 1.0, "SCREENING 1", -7, "TREATMENT", "2013-03-08", -8], [674, "CDISCPILOT01", "QS", "01-703-1210", 1011, "MHITM11", "EVIDENCE OF ASSOCIATED ATHEROSCLEROSIS", "MHIS-NACC", "", "ABSENT", "", "0", 0, "", "", "", "", "", 1.0, "SCREENING 1", -7, "TREATMENT", "2013-03-08", -8], [675, "CDISCPILOT01", "QS", "01-703-1210", 1012, "MHITM12", "FOCAL NEUROLOGICAL SYMPTOMS", "MHIS-NACC", "", "ABSENT", "", "0", 0, "", "", "", "", "", 1.0, "SCREENING 1", -7, "TREATMENT", "2013-03-08", -8], [676, "CDISCPILOT01", "QS", "01-703-1210", 1013, "MHITM13", "FOCAL NEUROLOGICAL SIGNS", "MHIS-NACC", "", "ABSENT", "", "0", 0, "", "", "", "", "", 1.0, "SCREENING 1", -7, "TREATMENT", "2013-03-08", -8], [677, "CDISCPILOT01", "QS", "01-703-1258", 1001, "MHITM01", "ABRUPT ONSET", "MHIS-NACC", "", "ABSENT", "", "0", 0, "", "", "", "", "", 1.0, "SCREENING 1", -7, "TREATMENT", "2012-07-10", -10], [678, "CDISCPILOT01", "QS", "01-703-1258", 1002, "MHITM02", "STEPWISE DETERIORATION", "MHIS-NACC", "", "ABSENT", "", "0", 0, "", "", "", "", "", 1.0, "SCREENING 1", -7, "TREATMENT", "2012-07-10", -10], [679, "CDISCPILOT01", "QS", "01-703-1258", 1003, "MHITM03", "FLUCTUATING COURSE", "MHIS-NACC", "", "ABSENT", "", "0", 0, "", "", "", "", "", 1.0, "SCREENING 1", -7, "TREATMENT", "2012-07-10", -10], [680, "CDISCPILOT01", "QS", "01-703-1258", 1004, "MHITM04", "NOCTURNAL CONFUSION", "MHIS-NACC", "", "ABSENT", "", "0", 0, "", "", "", "", "", 1.0, "SCREENING 1", -7, "TREATMENT", "2012-07-10", -10], [681, "CDISCPILOT01", "QS", "01-703-1258", 1005, "MHITM05", "RELATIVE PRESERVATION OF PERSONALITY", "MHIS-NACC", "", "ABSENT", "", "0", 0, "", "", "", "", "", 1.0, "SCREENING 1", -7, "TREATMENT", "2012-07-10", -10], [682, "CDISCPILOT01", "QS", "01-703-1258", 1006, "MHITM06", "DEPRESSION", "MHIS-NACC", "", "ABSENT", "", "0", 0, "", "", "", "", "", 1.0, "SCREENING 1", -7, "TREATMENT", "2012-07-10", -10], [683, "CDISCPILOT01", "QS", "01-703-1258", 1007, "MHITM07", "SOMATIC COMPLAINTS", "MHIS-NACC", "", "PRESENT", "", "1", 1, "", "", "", "", "", 1.0, "SCREENING 1", -7, "TREATMENT", "2012-07-10", -10], [684, "CDISCPILOT01", "QS", "01-703-1258", 1008, "MHITM08", "EMOTIONAL INCONTINENCE", "MHIS-NACC", "", "ABSENT", "", "0", 0, "", "", "", "", "", 1.0, "SCREENING 1", -7, "TREATMENT", "2012-07-10", -10], [685, "CDISCPILOT01", "QS", "01-703-1258", 1009, "MHITM09", "HISTORY OF HYPERTENSION", "MHIS-NACC", "", "PRESENT", "", "1", 1, "", "", "", "", "", 1.0, "SCREENING 1", -7, "TREATMENT", "2012-07-10", -10], [686, "CDISCPILOT01", "QS", "01-703-1258", 1010, "MHITM10", "HISTORY OF STROKES", "MHIS-NACC", "", "ABSENT", "", "0", 0, "", "", "", "", "", 1.0, "SCREENING 1", -7, "TREATMENT", "2012-07-10", -10], [687, "CDISCPILOT01", "QS", "01-703-1258", 1011, "MHITM11", "EVIDENCE OF ASSOCIATED ATHEROSCLEROSIS", "MHIS-NACC", "", "ABSENT", "", "0", 0, "", "", "", "", "", 1.0, "SCREENING 1", -7, "TREATMENT", "2012-07-10", -10], [688, "CDISCPILOT01", "QS", "01-703-1258", 1012, "MHITM12", "FOCAL NEUROLOGICAL SYMPTOMS", "MHIS-NACC", "", "ABSENT", "", "0", 0, "", "", "", "", "", 1.0, "SCREENING 1", -7, "TREATMENT", "2012-07-10", -10], [689, "CDISCPILOT01", "QS", "01-703-1258", 1013, "MHITM13", "FOCAL NEUROLOGICAL SIGNS", "MHIS-NACC", "", "ABSENT", "", "0", 0, "", "", "", "", "", 1.0, "SCREENING 1", -7, "TREATMENT", "2012-07-10", -10], [690, "CDISCPILOT01", "QS", "01-703-1279", 1001, "MHITM01", "ABRUPT ONSET", "MHIS-NACC", "", "ABSENT", "", "0", 0, "", "", "", "", "", 1.0, "SCREENING 1", -7, "TREATMENT", "2013-04-27", -16], [691, "CDISCPILOT01", "QS", "01-703-1279", 1002, "MHITM02", "STEPWISE DETERIORATION", "MHIS-NACC", "", "ABSENT", "", "0", 0, "", "", "", "", "", 1.0, "SCREENING 1", -7, "TREATMENT", "2013-04-27", -16], [692, "CDISCPILOT01", "QS", "01-703-1279", 1003, "MHITM03", "FLUCTUATING COURSE", "MHIS-NACC", "", "ABSENT", "", "0", 0, "", "", "", "", "", 1.0, "SCREENING 1", -7, "TREATMENT", "2013-04-27", -16], [693, "CDISCPILOT01", "QS", "01-703-1279", 1004, "MHITM04", "NOCTURNAL CONFUSION", "MHIS-NACC", "", "ABSENT", "", "0", 0, "", "", "", "", "", 1.0, "SCREENING 1", -7, "TREATMENT", "2013-04-27", -16], [694, "CDISCPILOT01", "QS", "01-703-1279", 1005, "MHITM05", "RELATIVE PRESERVATION OF PERSONALITY", "MHIS-NACC", "", "ABSENT", "", "0", 0, "", "", "", "", "", 1.0, "SCREENING 1", -7, "TREATMENT", "2013-04-27", -16], [695, "CDISCPILOT01", "QS", "01-703-1279", 1006, "MHITM06", "DEPRESSION", "MHIS-NACC", "", "ABSENT", "", "0", 0, "", "", "", "", "", 1.0, "SCREENING 1", -7, "TREATMENT", "2013-04-27", -16], [696, "CDISCPILOT01", "QS", "01-703-1279", 1007, "MHITM07", "SOMATIC COMPLAINTS", "MHIS-NACC", "", "ABSENT", "", "0", 0, "", "", "", "", "", 1.0, "SCREENING 1", -7, "TREATMENT", "2013-04-27", -16], [697, "CDISCPILOT01", "QS", "01-703-1279", 1008, "MHITM08", "EMOTIONAL INCONTINENCE", "MHIS-NACC", "", "ABSENT", "", "0", 0, "", "", "", "", "", 1.0, "SCREENING 1", -7, "TREATMENT", "2013-04-27", -16], [698, "CDISCPILOT01", "QS", "01-703-1279", 1009, "MHITM09", "HISTORY OF HYPERTENSION", "MHIS-NACC", "", "ABSENT", "", "0", 0, "", "", "", "", "", 1.0, "SCREENING 1", -7, "TREATMENT", "2013-04-27", -16], [699, "CDISCPILOT01", "QS", "01-703-1279", 1010, "MHITM10", "HISTORY OF STROKES", "MHIS-NACC", "", "ABSENT", "", "0", 0, "", "", "", "", "", 1.0, "SCREENING 1", -7, "TREATMENT", "2013-04-27", -16], [700, "CDISCPILOT01", "QS", "01-703-1279", 1011, "MHITM11", "EVIDENCE OF ASSOCIATED ATHEROSCLEROSIS", "MHIS-NACC", "", "ABSENT", "", "0", 0, "", "", "", "", "", 1.0, "SCREENING 1", -7, "TREATMENT", "2013-04-27", -16], [701, "CDISCPILOT01", "QS", "01-703-1279", 1012, "MHITM12", "FOCAL NEUROLOGICAL SYMPTOMS", "MHIS-NACC", "", "ABSENT", "", "0", 0, "", "", "", "", "", 1.0, "SCREENING 1", -7, "TREATMENT", "2013-04-27", -16], [702, "CDISCPILOT01", "QS", "01-703-1279", 1013, "MHITM13", "FOCAL NEUROLOGICAL SIGNS", "MHIS-NACC", "", "ABSENT", "", "0", 0, "", "", "", "", "", 1.0, "SCREENING 1", -7, "TREATMENT", "2013-04-27", -16], [703, "CDISCPILOT01", "QS", "01-703-1295", 1001, "MHITM01", "ABRUPT ONSET", "MHIS-NACC", "", "ABSENT", "", "0", 0, "", "", "", "", "", 1.0, "SCREENING 1", -7, "TREATMENT", "2013-10-24", -28], [704, "CDISCPILOT01", "QS", "01-703-1295", 1002, "MHITM02", "STEPWISE DETERIORATION", "MHIS-NACC", "", "ABSENT", "", "0", 0, "", "", "", "", "", 1.0, "SCREENING 1", -7, "TREATMENT", "2013-10-24", -28], [705, "CDISCPILOT01", "QS", "01-703-1295", 1003, "MHITM03", "FLUCTUATING COURSE", "MHIS-NACC", "", "ABSENT", "", "0", 0, "", "", "", "", "", 1.0, "SCREENING 1", -7, "TREATMENT", "2013-10-24", -28], [706, "CDISCPILOT01", "QS", "01-703-1295", 1004, "MHITM04", "NOCTURNAL CONFUSION", "MHIS-NACC", "", "ABSENT", "", "0", 0, "", "", "", "", "", 1.0, "SCREENING 1", -7, "TREATMENT", "2013-10-24", -28], [707, "CDISCPILOT01", "QS", "01-703-1295", 1005, "MHITM05", "RELATIVE PRESERVATION OF PERSONALITY", "MHIS-NACC", "", "ABSENT", "", "0", 0, "", "", "", "", "", 1.0, "SCREENING 1", -7, "TREATMENT", "2013-10-24", -28], [708, "CDISCPILOT01", "QS", "01-703-1295", 1006, "MHITM06", "DEPRESSION", "MHIS-NACC", "", "PRESENT", "", "1", 1, "", "", "", "", "", 1.0, "SCREENING 1", -7, "TREATMENT", "2013-10-24", -28], [709, "CDISCPILOT01", "QS", "01-703-1295", 1007, "MHITM07", "SOMATIC COMPLAINTS", "MHIS-NACC", "", "ABSENT", "", "0", 0, "", "", "", "", "", 1.0, "SCREENING 1", -7, "TREATMENT", "2013-10-24", -28], [710, "CDISCPILOT01", "QS", "01-703-1295", 1008, "MHITM08", "EMOTIONAL INCONTINENCE", "MHIS-NACC", "", "ABSENT", "", "0", 0, "", "", "", "", "", 1.0, "SCREENING 1", -7, "TREATMENT", "2013-10-24", -28], [711, "CDISCPILOT01", "QS", "01-703-1295", 1009, "MHITM09", "HISTORY OF HYPERTENSION", "MHIS-NACC", "", "ABSENT", "", "0", 0, "", "", "", "", "", 1.0, "SCREENING 1", -7, "TREATMENT", "2013-10-24", -28], [712, "CDISCPILOT01", "QS", "01-703-1295", 1010, "MHITM10", "HISTORY OF STROKES", "MHIS-NACC", "", "ABSENT", "", "0", 0, "", "", "", "", "", 1.0, "SCREENING 1", -7, "TREATMENT", "2013-10-24", -28], [713, "CDISCPILOT01", "QS", "01-703-1295", 1011, "MHITM11", "EVIDENCE OF ASSOCIATED ATHEROSCLEROSIS", "MHIS-NACC", "", "ABSENT", "", "0", 0, "", "", "", "", "", 1.0, "SCREENING 1", -7, "TREATMENT", "2013-10-24", -28], [714, "CDISCPILOT01", "QS", "01-703-1295", 1012, "MHITM12", "FOCAL NEUROLOGICAL SYMPTOMS", "MHIS-NACC", "", "ABSENT", "", "0", 0, "", "", "", "", "", 1.0, "SCREENING 1", -7, "TREATMENT", "2013-10-24", -28], [715, "CDISCPILOT01", "QS", "01-703-1295", 1013, "MHITM13", "FOCAL NEUROLOGICAL SIGNS", "MHIS-NACC", "", "ABSENT", "", "0", 0, "", "", "", "", "", 1.0, "SCREENING 1", -7, "TREATMENT", "2013-10-24", -28], [716, "CDISCPILOT01", "QS", "01-703-1299", 1001, "MHITM01", "ABRUPT ONSET", "MHIS-NACC", "", "ABSENT", "", "0", 0, "", "", "", "", "", 1.0, "SCREENING 1", -7, "TREATMENT", "2012-09-07", -5], [717, "CDISCPILOT01", "QS", "01-703-1299", 1002, "MHITM02", "STEPWISE DETERIORATION", "MHIS-NACC", "", "ABSENT", "", "0", 0, "", "", "", "", "", 1.0, "SCREENING 1", -7, "TREATMENT", "2012-09-07", -5], [718, "CDISCPILOT01", "QS", "01-703-1299", 1003, "MHITM03", "FLUCTUATING COURSE", "MHIS-NACC", "", "ABSENT", "", "0", 0, "", "", "", "", "", 1.0, "SCREENING 1", -7, "TREATMENT", "2012-09-07", -5], [719, "CDISCPILOT01", "QS", "01-703-1299", 1004, "MHITM04", "NOCTURNAL CONFUSION", "MHIS-NACC", "", "ABSENT", "", "0", 0, "", "", "", "", "", 1.0, "SCREENING 1", -7, "TREATMENT", "2012-09-07", -5], [720, "CDISCPILOT01", "QS", "01-703-1299", 1005, "MHITM05", "RELATIVE PRESERVATION OF PERSONALITY", "MHIS-NACC", "", "ABSENT", "", "0", 0, "", "", "", "", "", 1.0, "SCREENING 1", -7, "TREATMENT", "2012-09-07", -5], [721, "CDISCPILOT01", "QS", "01-703-1299", 1006, "MHITM06", "DEPRESSION", "MHIS-NACC", "", "ABSENT", "", "0", 0, "", "", "", "", "", 1.0, "SCREENING 1", -7, "TREATMENT", "2012-09-07", -5], [722, "CDISCPILOT01", "QS", "01-703-1299", 1007, "MHITM07", "SOMATIC COMPLAINTS", "MHIS-NACC", "", "ABSENT", "", "0", 0, "", "", "", "", "", 1.0, "SCREENING 1", -7, "TREATMENT", "2012-09-07", -5], [723, "CDISCPILOT01", "QS", "01-703-1299", 1008, "MHITM08", "EMOTIONAL INCONTINENCE", "MHIS-NACC", "", "ABSENT", "", "0", 0, "", "", "", "", "", 1.0, "SCREENING 1", -7, "TREATMENT", "2012-09-07", -5], [724, "CDISCPILOT01", "QS", "01-703-1299", 1009, "MHITM09", "HISTORY OF HYPERTENSION", "MHIS-NACC", "", "ABSENT", "", "0", 0, "", "", "", "", "", 1.0, "SCREENING 1", -7, "TREATMENT", "2012-09-07", -5], [725, "CDISCPILOT01", "QS", "01-703-1299", 1010, "MHITM10", "HISTORY OF STROKES", "MHIS-NACC", "", "ABSENT", "", "0", 0, "", "", "", "", "", 1.0, "SCREENING 1", -7, "TREATMENT", "2012-09-07", -5], [726, "CDISCPILOT01", "QS", "01-703-1299", 1011, "MHITM11", "EVIDENCE OF ASSOCIATED ATHEROSCLEROSIS", "MHIS-NACC", "", "ABSENT", "", "0", 0, "", "", "", "", "", 1.0, "SCREENING 1", -7, "TREATMENT", "2012-09-07", -5], [727, "CDISCPILOT01", "QS", "01-703-1299", 1012, "MHITM12", "FOCAL NEUROLOGICAL SYMPTOMS", "MHIS-NACC", "", "ABSENT", "", "0", 0, "", "", "", "", "", 1.0, "SCREENING 1", -7, "TREATMENT", "2012-09-07", -5], [728, "CDISCPILOT01", "QS", "01-703-1299", 1013, "MHITM13", "FOCAL NEUROLOGICAL SIGNS", "MHIS-NACC", "", "ABSENT", "", "0", 0, "", "", "", "", "", 1.0, "SCREENING 1", -7, "TREATMENT", "2012-09-07", -5], [729, "CDISCPILOT01", "QS", "01-703-1335", 1001, "MHITM01", "ABRUPT ONSET", "MHIS-NACC", "", "ABSENT", "", "0", 0, "", "", "", "", "", 1.0, "SCREENING 1", -7, "TREATMENT", "2014-02-28", -17], [730, "CDISCPILOT01", "QS", "01-703-1335", 1002, "MHITM02", "STEPWISE DETERIORATION", "MHIS-NACC", "", "ABSENT", "", "0", 0, "", "", "", "", "", 1.0, "SCREENING 1", -7, "TREATMENT", "2014-02-28", -17], [731, "CDISCPILOT01", "QS", "01-703-1335", 1003, "MHITM03", "FLUCTUATING COURSE", "MHIS-NACC", "", "ABSENT", "", "0", 0, "", "", "", "", "", 1.0, "SCREENING 1", -7, "TREATMENT", "2014-02-28", -17], [732, "CDISCPILOT01", "QS", "01-703-1335", 1004, "MHITM04", "NOCTURNAL CONFUSION", "MHIS-NACC", "", "ABSENT", "", "0", 0, "", "", "", "", "", 1.0, "SCREENING 1", -7, "TREATMENT", "2014-02-28", -17], [733, "CDISCPILOT01", "QS", "01-703-1335", 1005, "MHITM05", "RELATIVE PRESERVATION OF PERSONALITY", "MHIS-NACC", "", "ABSENT", "", "0", 0, "", "", "", "", "", 1.0, "SCREENING 1", -7, "TREATMENT", "2014-02-28", -17], [734, "CDISCPILOT01", "QS", "01-703-1335", 1006, "MHITM06", "DEPRESSION", "MHIS-NACC", "", "ABSENT", "", "0", 0, "", "", "", "", "", 1.0, "SCREENING 1", -7, "TREATMENT", "2014-02-28", -17], [735, "CDISCPILOT01", "QS", "01-703-1335", 1007, "MHITM07", "SOMATIC COMPLAINTS", "MHIS-NACC", "", "ABSENT", "", "0", 0, "", "", "", "", "", 1.0, "SCREENING 1", -7, "TREATMENT", "2014-02-28", -17], [736, "CDISCPILOT01", "QS", "01-703-1335", 1008, "MHITM08", "EMOTIONAL INCONTINENCE", "MHIS-NACC", "", "ABSENT", "", "0", 0, "", "", "", "", "", 1.0, "SCREENING 1", -7, "TREATMENT", "2014-02-28", -17], [737, "CDISCPILOT01", "QS", "01-703-1335", 1009, "MHITM09", "HISTORY OF HYPERTENSION", "MHIS-NACC", "", "ABSENT", "", "0", 0, "", "", "", "", "", 1.0, "SCREENING 1", -7, "TREATMENT", "2014-02-28", -17], [738, "CDISCPILOT01", "QS", "01-703-1335", 1010, "MHITM10", "HISTORY OF STROKES", "MHIS-NACC", "", "ABSENT", "", "0", 0, "", "", "", "", "", 1.0, "SCREENING 1", -7, "TREATMENT", "2014-02-28", -17], [739, "CDISCPILOT01", "QS", "01-703-1335", 1011, "MHITM11", "EVIDENCE OF ASSOCIATED ATHEROSCLEROSIS", "MHIS-NACC", "", "ABSENT", "", "0", 0, "", "", "", "", "", 1.0, "SCREENING 1", -7, "TREATMENT", "2014-02-28", -17], [740, "CDISCPILOT01", "QS", "01-703-1335", 1012, "MHITM12", "FOCAL NEUROLOGICAL SYMPTOMS", "MHIS-NACC", "", "ABSENT", "", "0", 0, "", "", "", "", "", 1.0, "SCREENING 1", -7, "TREATMENT", "2014-02-28", -17], [741, "CDISCPILOT01", "QS", "01-703-1335", 1013, "MHITM13", "FOCAL NEUROLOGICAL SIGNS", "MHIS-NACC", "", "PRESENT", "", "2", 2, "", "", "", "", "", 1.0, "SCREENING 1", -7, "TREATMENT", "2014-02-28", -17], [742, "CDISCPILOT01", "QS", "01-703-1379", 1001, "MHITM01", "ABRUPT ONSET", "MHIS-NACC", "", "ABSENT", "", "0", 0, "", "", "", "", "", 1.0, "SCREENING 1", -7, "TREATMENT", "2013-09-12", -10], [743, "CDISCPILOT01", "QS", "01-703-1379", 1002, "MHITM02", "STEPWISE DETERIORATION", "MHIS-NACC", "", "ABSENT", "", "0", 0, "", "", "", "", "", 1.0, "SCREENING 1", -7, "TREATMENT", "2013-09-12", -10], [744, "CDISCPILOT01", "QS", "01-703-1379", 1003, "MHITM03", "FLUCTUATING COURSE", "MHIS-NACC", "", "ABSENT", "", "0", 0, "", "", "", "", "", 1.0, "SCREENING 1", -7, "TREATMENT", "2013-09-12", -10], [745, "CDISCPILOT01", "QS", "01-703-1379", 1004, "MHITM04", "NOCTURNAL CONFUSION", "MHIS-NACC", "", "ABSENT", "", "0", 0, "", "", "", "", "", 1.0, "SCREENING 1", -7, "TREATMENT", "2013-09-12", -10], [746, "CDISCPILOT01", "QS", "01-703-1379", 1005, "MHITM05", "RELATIVE PRESERVATION OF PERSONALITY", "MHIS-NACC", "", "ABSENT", "", "0", 0, "", "", "", "", "", 1.0, "SCREENING 1", -7, "TREATMENT", "2013-09-12", -10], [747, "CDISCPILOT01", "QS", "01-703-1379", 1006, "MHITM06", "DEPRESSION", "MHIS-NACC", "", "ABSENT", "", "0", 0, "", "", "", "", "", 1.0, "SCREENING 1", -7, "TREATMENT", "2013-09-12", -10], [748, "CDISCPILOT01", "QS", "01-703-1379", 1007, "MHITM07", "SOMATIC COMPLAINTS", "MHIS-NACC", "", "ABSENT", "", "0", 0, "", "", "", "", "", 1.0, "SCREENING 1", -7, "TREATMENT", "2013-09-12", -10], [749, "CDISCPILOT01", "QS", "01-703-1379", 1008, "MHITM08", "EMOTIONAL INCONTINENCE", "MHIS-NACC", "", "ABSENT", "", "0", 0, "", "", "", "", "", 1.0, "SCREENING 1", -7, "TREATMENT", "2013-09-12", -10], [750, "CDISCPILOT01", "QS", "01-703-1379", 1009, "MHITM09", "HISTORY OF HYPERTENSION", "MHIS-NACC", "", "ABSENT", "", "0", 0, "", "", "", "", "", 1.0, "SCREENING 1", -7, "TREATMENT", "2013-09-12", -10], [751, "CDISCPILOT01", "QS", "01-703-1379", 1010, "MHITM10", "HISTORY OF STROKES", "MHIS-NACC", "", "ABSENT", "", "0", 0, "", "", "", "", "", 1.0, "SCREENING 1", -7, "TREATMENT", "2013-09-12", -10], [752, "CDISCPILOT01", "QS", "01-703-1379", 1011, "MHITM11", "EVIDENCE OF ASSOCIATED ATHEROSCLEROSIS", "MHIS-NACC", "", "ABSENT", "", "0", 0, "", "", "", "", "", 1.0, "SCREENING 1", -7, "TREATMENT", "2013-09-12", -10], [753, "CDISCPILOT01", "QS", "01-703-1379", 1012, "MHITM12", "FOCAL NEUROLOGICAL SYMPTOMS", "MHIS-NACC", "", "ABSENT", "", "0", 0, "", "", "", "", "", 1.0, "SCREENING 1", -7, "TREATMENT", "2013-09-12", -10], [754, "CDISCPILOT01", "QS", "01-703-1379", 1013, "MHITM13", "FOCAL NEUROLOGICAL SIGNS", "MHIS-NACC", "", "ABSENT", "", "0", 0, "", "", "", "", "", 1.0, "SCREENING 1", -7, "TREATMENT", "2013-09-12", -10], [755, "CDISCPILOT01", "QS", "01-703-1403", 1001, "MHITM01", "ABRUPT ONSET", "MHIS-NACC", "", "ABSENT", "", "0", 0, "", "", "", "", "", 1.0, "SCREENING 1", -7, "TREATMENT", "2012-12-05", -7], [756, "CDISCPILOT01", "QS", "01-703-1403", 1002, "MHITM02", "STEPWISE DETERIORATION", "MHIS-NACC", "", "ABSENT", "", "0", 0, "", "", "", "", "", 1.0, "SCREENING 1", -7, "TREATMENT", "2012-12-05", -7], [757, "CDISCPILOT01", "QS", "01-703-1403", 1003, "MHITM03", "FLUCTUATING COURSE", "MHIS-NACC", "", "ABSENT", "", "0", 0, "", "", "", "", "", 1.0, "SCREENING 1", -7, "TREATMENT", "2012-12-05", -7], [758, "CDISCPILOT01", "QS", "01-703-1403", 1004, "MHITM04", "NOCTURNAL CONFUSION", "MHIS-NACC", "", "ABSENT", "", "0", 0, "", "", "", "", "", 1.0, "SCREENING 1", -7, "TREATMENT", "2012-12-05", -7], [759, "CDISCPILOT01", "QS", "01-703-1403", 1005, "MHITM05", "RELATIVE PRESERVATION OF PERSONALITY", "MHIS-NACC", "", "PRESENT", "", "1", 1, "", "", "", "", "", 1.0, "SCREENING 1", -7, "TREATMENT", "2012-12-05", -7], [760, "CDISCPILOT01", "QS", "01-703-1403", 1006, "MHITM06", "DEPRESSION", "MHIS-NACC", "", "ABSENT", "", "0", 0, "", "", "", "", "", 1.0, "SCREENING 1", -7, "TREATMENT", "2012-12-05", -7], [761, "CDISCPILOT01", "QS", "01-703-1403", 1007, "MHITM07", "SOMATIC COMPLAINTS", "MHIS-NACC", "", "ABSENT", "", "0", 0, "", "", "", "", "", 1.0, "SCREENING 1", -7, "TREATMENT", "2012-12-05", -7], [762, "CDISCPILOT01", "QS", "01-703-1403", 1008, "MHITM08", "EMOTIONAL INCONTINENCE", "MHIS-NACC", "", "ABSENT", "", "0", 0, "", "", "", "", "", 1.0, "SCREENING 1", -7, "TREATMENT", "2012-12-05", -7], [763, "CDISCPILOT01", "QS", "01-703-1403", 1009, "MHITM09", "HISTORY OF HYPERTENSION", "MHIS-NACC", "", "ABSENT", "", "0", 0, "", "", "", "", "", 1.0, "SCREENING 1", -7, "TREATMENT", "2012-12-05", -7], [764, "CDISCPILOT01", "QS", "01-703-1403", 1010, "MHITM10", "HISTORY OF STROKES", "MHIS-NACC", "", "ABSENT", "", "0", 0, "", "", "", "", "", 1.0, "SCREENING 1", -7, "TREATMENT", "2012-12-05", -7], [765, "CDISCPILOT01", "QS", "01-703-1403", 1011, "MHITM11", "EVIDENCE OF ASSOCIATED ATHEROSCLEROSIS", "MHIS-NACC", "", "ABSENT", "", "0", 0, "", "", "", "", "", 1.0, "SCREENING 1", -7, "TREATMENT", "2012-12-05", -7], [766, "CDISCPILOT01", "QS", "01-703-1403", 1012, "MHITM12", "FOCAL NEUROLOGICAL SYMPTOMS", "MHIS-NACC", "", "ABSENT", "", "0", 0, "", "", "", "", "", 1.0, "SCREENING 1", -7, "TREATMENT", "2012-12-05", -7], [767, "CDISCPILOT01", "QS", "01-703-1403", 1013, "MHITM13", "FOCAL NEUROLOGICAL SIGNS", "MHIS-NACC", "", "ABSENT", "", "0", 0, "", "", "", "", "", 1.0, "SCREENING 1", -7, "TREATMENT", "2012-12-05", -7], [768, "CDISCPILOT01", "QS", "01-703-1439", 1001, "MHITM01", "ABRUPT ONSET", "MHIS-NACC", "", "ABSENT", "", "0", 0, "", "", "", "", "", 1.0, "SCREENING 1", -7, "TREATMENT", "2014-03-04", -8], [769, "CDISCPILOT01", "QS", "01-703-1439", 1002, "MHITM02", "STEPWISE DETERIORATION", "MHIS-NACC", "", "ABSENT", "", "0", 0, "", "", "", "", "", 1.0, "SCREENING 1", -7, "TREATMENT", "2014-03-04", -8], [770, "CDISCPILOT01", "QS", "01-703-1439", 1003, "MHITM03", "FLUCTUATING COURSE", "MHIS-NACC", "", "ABSENT", "", "0", 0, "", "", "", "", "", 1.0, "SCREENING 1", -7, "TREATMENT", "2014-03-04", -8], [771, "CDISCPILOT01", "QS", "01-703-1439", 1004, "MHITM04", "NOCTURNAL CONFUSION", "MHIS-NACC", "", "ABSENT", "", "0", 0, "", "", "", "", "", 1.0, "SCREENING 1", -7, "TREATMENT", "2014-03-04", -8], [772, "CDISCPILOT01", "QS", "01-703-1439", 1005, "MHITM05", "RELATIVE PRESERVATION OF PERSONALITY", "MHIS-NACC", "", "ABSENT", "", "0", 0, "", "", "", "", "", 1.0, "SCREENING 1", -7, "TREATMENT", "2014-03-04", -8], [773, "CDISCPILOT01", "QS", "01-703-1439", 1006, "MHITM06", "DEPRESSION", "MHIS-NACC", "", "ABSENT", "", "0", 0, "", "", "", "", "", 1.0, "SCREENING 1", -7, "TREATMENT", "2014-03-04", -8], [774, "CDISCPILOT01", "QS", "01-703-1439", 1007, "MHITM07", "SOMATIC COMPLAINTS", "MHIS-NACC", "", "ABSENT", "", "0", 0, "", "", "", "", "", 1.0, "SCREENING 1", -7, "TREATMENT", "2014-03-04", -8], [775, "CDISCPILOT01", "QS", "01-703-1439", 1008, "MHITM08", "EMOTIONAL INCONTINENCE", "MHIS-NACC", "", "ABSENT", "", "0", 0, "", "", "", "", "", 1.0, "SCREENING 1", -7, "TREATMENT", "2014-03-04", -8], [776, "CDISCPILOT01", "QS", "01-703-1439", 1009, "MHITM09", "HISTORY OF HYPERTENSION", "MHIS-NACC", "", "ABSENT", "", "0", 0, "", "", "", "", "", 1.0, "SCREENING 1", -7, "TREATMENT", "2014-03-04", -8], [777, "CDISCPILOT01", "QS", "01-703-1439", 1010, "MHITM10", "HISTORY OF STROKES", "MHIS-NACC", "", "ABSENT", "", "0", 0, "", "", "", "", "", 1.0, "SCREENING 1", -7, "TREATMENT", "2014-03-04", -8], [778, "CDISCPILOT01", "QS", "01-703-1439", 1011, "MHITM11", "EVIDENCE OF ASSOCIATED ATHEROSCLEROSIS", "MHIS-NACC", "", "ABSENT", "", "0", 0, "", "", "", "", "", 1.0, "SCREENING 1", -7, "TREATMENT", "2014-03-04", -8], [779, "CDISCPILOT01", "QS", "01-703-1439", 1012, "MHITM12", "FOCAL NEUROLOGICAL SYMPTOMS", "MHIS-NACC", "", "ABSENT", "", "0", 0, "", "", "", "", "", 1.0, "SCREENING 1", -7, "TREATMENT", "2014-03-04", -8], [780, "CDISCPILOT01", "QS", "01-703-1439", 1013, "MHITM13", "FOCAL NEUROLOGICAL SIGNS", "MHIS-NACC", "", "PRESENT", "", "2", 2, "", "", "", "", "", 1.0, "SCREENING 1", -7, "TREATMENT", "2014-03-04", -8], [781, "CDISCPILOT01", "QS", "01-704-1008", 1001, "MHITM01", "ABRUPT ONSET", "MHIS-NACC", "", "ABSENT", "", "0", 0, "", "", "", "", "", 1.0, "SCREENING 1", -7, "TREATMENT", "2013-01-06", -7], [782, "CDISCPILOT01", "QS", "01-704-1008", 1002, "MHITM02", "STEPWISE DETERIORATION", "MHIS-NACC", "", "ABSENT", "", "0", 0, "", "", "", "", "", 1.0, "SCREENING 1", -7, "TREATMENT", "2013-01-06", -7], [783, "CDISCPILOT01", "QS", "01-704-1008", 1003, "MHITM03", "FLUCTUATING COURSE", "MHIS-NACC", "", "ABSENT", "", "0", 0, "", "", "", "", "", 1.0, "SCREENING 1", -7, "TREATMENT", "2013-01-06", -7], [784, "CDISCPILOT01", "QS", "01-704-1008", 1004, "MHITM04", "NOCTURNAL CONFUSION", "MHIS-NACC", "", "ABSENT", "", "0", 0, "", "", "", "", "", 1.0, "SCREENING 1", -7, "TREATMENT", "2013-01-06", -7], [785, "CDISCPILOT01", "QS", "01-704-1008", 1005, "MHITM05", "RELATIVE PRESERVATION OF PERSONALITY", "MHIS-NACC", "", "ABSENT", "", "0", 0, "", "", "", "", "", 1.0, "SCREENING 1", -7, "TREATMENT", "2013-01-06", -7], [786, "CDISCPILOT01", "QS", "01-704-1008", 1006, "MHITM06", "DEPRESSION", "MHIS-NACC", "", "ABSENT", "", "0", 0, "", "", "", "", "", 1.0, "SCREENING 1", -7, "TREATMENT", "2013-01-06", -7], [787, "CDISCPILOT01", "QS", "01-704-1008", 1007, "MHITM07", "SOMATIC COMPLAINTS", "MHIS-NACC", "", "ABSENT", "", "0", 0, "", "", "", "", "", 1.0, "SCREENING 1", -7, "TREATMENT", "2013-01-06", -7], [788, "CDISCPILOT01", "QS", "01-704-1008", 1008, "MHITM08", "EMOTIONAL INCONTINENCE", "MHIS-NACC", "", "ABSENT", "", "0", 0, "", "", "", "", "", 1.0, "SCREENING 1", -7, "TREATMENT", "2013-01-06", -7], [789, "CDISCPILOT01", "QS", "01-704-1008", 1009, "MHITM09", "HISTORY OF HYPERTENSION", "MHIS-NACC", "", "ABSENT", "", "0", 0, "", "", "", "", "", 1.0, "SCREENING 1", -7, "TREATMENT", "2013-01-06", -7], [790, "CDISCPILOT01", "QS", "01-704-1008", 1010, "MHITM10", "HISTORY OF STROKES", "MHIS-NACC", "", "ABSENT", "", "0", 0, "", "", "", "", "", 1.0, "SCREENING 1", -7, "TREATMENT", "2013-01-06", -7], [791, "CDISCPILOT01", "QS", "01-704-1008", 1011, "MHITM11", "EVIDENCE OF ASSOCIATED ATHEROSCLEROSIS", "MHIS-NACC", "", "ABSENT", "", "0", 0, "", "", "", "", "", 1.0, "SCREENING 1", -7, "TREATMENT", "2013-01-06", -7], [792, "CDISCPILOT01", "QS", "01-704-1008", 1012, "MHITM12", "FOCAL NEUROLOGICAL SYMPTOMS", "MHIS-NACC", "", "ABSENT", "", "0", 0, "", "", "", "", "", 1.0, "SCREENING 1", -7, "TREATMENT", "2013-01-06", -7], [793, "CDISCPILOT01", "QS", "01-704-1008", 1013, "MHITM13", "FOCAL NEUROLOGICAL SIGNS", "MHIS-NACC", "", "ABSENT", "", "0", 0, "", "", "", "", "", 1.0, "SCREENING 1", -7, "TREATMENT", "2013-01-06", -7], [794, "CDISCPILOT01", "QS", "01-704-1009", 1001, "MHITM01", "ABRUPT ONSET", "MHIS-NACC", "", "ABSENT", "", "0", 0, "", "", "", "", "", 1.0, "SCREENING 1", -7, "TREATMENT", "2013-08-20", -7], [795, "CDISCPILOT01", "QS", "01-704-1009", 1002, "MHITM02", "STEPWISE DETERIORATION", "MHIS-NACC", "", "ABSENT", "", "0", 0, "", "", "", "", "", 1.0, "SCREENING 1", -7, "TREATMENT", "2013-08-20", -7], [796, "CDISCPILOT01", "QS", "01-704-1009", 1003, "MHITM03", "FLUCTUATING COURSE", "MHIS-NACC", "", "ABSENT", "", "0", 0, "", "", "", "", "", 1.0, "SCREENING 1", -7, "TREATMENT", "2013-08-20", -7], [797, "CDISCPILOT01", "QS", "01-704-1009", 1004, "MHITM04", "NOCTURNAL CONFUSION", "MHIS-NACC", "", "ABSENT", "", "0", 0, "", "", "", "", "", 1.0, "SCREENING 1", -7, "TREATMENT", "2013-08-20", -7], [798, "CDISCPILOT01", "QS", "01-704-1009", 1005, "MHITM05", "RELATIVE PRESERVATION OF PERSONALITY", "MHIS-NACC", "", "ABSENT", "", "0", 0, "", "", "", "", "", 1.0, "SCREENING 1", -7, "TREATMENT", "2013-08-20", -7], [799, "CDISCPILOT01", "QS", "01-704-1009", 1006, "MHITM06", "DEPRESSION", "MHIS-NACC", "", "ABSENT", "", "0", 0, "", "", "", "", "", 1.0, "SCREENING 1", -7, "TREATMENT", "2013-08-20", -7], [800, "CDISCPILOT01", "QS", "01-704-1009", 1007, "MHITM07", "SOMATIC COMPLAINTS", "MHIS-NACC", "", "ABSENT", "", "0", 0, "", "", "", "", "", 1.0, "SCREENING 1", -7, "TREATMENT", "2013-08-20", -7], [801, "CDISCPILOT01", "QS", "01-704-1009", 1008, "MHITM08", "EMOTIONAL INCONTINENCE", "MHIS-NACC", "", "ABSENT", "", "0", 0, "", "", "", "", "", 1.0, "SCREENING 1", -7, "TREATMENT", "2013-08-20", -7], [802, "CDISCPILOT01", "QS", "01-704-1009", 1009, "MHITM09", "HISTORY OF HYPERTENSION", "MHIS-NACC", "", "ABSENT", "", "0", 0, "", "", "", "", "", 1.0, "SCREENING 1", -7, "TREATMENT", "2013-08-20", -7], [803, "CDISCPILOT01", "QS", "01-704-1009", 1010, "MHITM10", "HISTORY OF STROKES", "MHIS-NACC", "", "ABSENT", "", "0", 0, "", "", "", "", "", 1.0, "SCREENING 1", -7, "TREATMENT", "2013-08-20", -7], [804, "CDISCPILOT01", "QS", "01-704-1009", 1011, "MHITM11", "EVIDENCE OF ASSOCIATED ATHEROSCLEROSIS", "MHIS-NACC", "", "ABSENT", "", "0", 0, "", "", "", "", "", 1.0, "SCREENING 1", -7, "TREATMENT", "2013-08-20", -7], [805, "CDISCPILOT01", "QS", "01-704-1009", 1012, "MHITM12", "FOCAL NEUROLOGICAL SYMPTOMS", "MHIS-NACC", "", "ABSENT", "", "0", 0, "", "", "", "", "", 1.0, "SCREENING 1", -7, "TREATMENT", "2013-08-20", -7], [806, "CDISCPILOT01", "QS", "01-704-1009", 1013, "MHITM13", "FOCAL NEUROLOGICAL SIGNS", "MHIS-NACC", "", "ABSENT", "", "0", 0, "", "", "", "", "", 1.0, "SCREENING 1", -7, "TREATMENT", "2013-08-20", -7], [807, "CDISCPILOT01", "QS", "01-704-1010", 1001, "MHITM01", "ABRUPT ONSET", "MHIS-NACC", "", "ABSENT", "", "0", 0, "", "", "", "", "", 1.0, "SCREENING 1", -7, "TREATMENT", "2014-02-08", -13], [808, "CDISCPILOT01", "QS", "01-704-1010", 1002, "MHITM02", "STEPWISE DETERIORATION", "MHIS-NACC", "", "ABSENT", "", "0", 0, "", "", "", "", "", 1.0, "SCREENING 1", -7, "TREATMENT", "2014-02-08", -13], [809, "CDISCPILOT01", "QS", "01-704-1010", 1003, "MHITM03", "FLUCTUATING COURSE", "MHIS-NACC", "", "ABSENT", "", "0", 0, "", "", "", "", "", 1.0, "SCREENING 1", -7, "TREATMENT", "2014-02-08", -13], [810, "CDISCPILOT01", "QS", "01-704-1010", 1004, "MHITM04", "NOCTURNAL CONFUSION", "MHIS-NACC", "", "ABSENT", "", "0", 0, "", "", "", "", "", 1.0, "SCREENING 1", -7, "TREATMENT", "2014-02-08", -13], [811, "CDISCPILOT01", "QS", "01-704-1010", 1005, "MHITM05", "RELATIVE PRESERVATION OF PERSONALITY", "MHIS-NACC", "", "ABSENT", "", "0", 0, "", "", "", "", "", 1.0, "SCREENING 1", -7, "TREATMENT", "2014-02-08", -13], [812, "CDISCPILOT01", "QS", "01-704-1010", 1006, "MHITM06", "DEPRESSION", "MHIS-NACC", "", "ABSENT", "", "0", 0, "", "", "", "", "", 1.0, "SCREENING 1", -7, "TREATMENT", "2014-02-08", -13], [813, "CDISCPILOT01", "QS", "01-704-1010", 1007, "MHITM07", "SOMATIC COMPLAINTS", "MHIS-NACC", "", "ABSENT", "", "0", 0, "", "", "", "", "", 1.0, "SCREENING 1", -7, "TREATMENT", "2014-02-08", -13], [814, "CDISCPILOT01", "QS", "01-704-1010", 1008, "MHITM08", "EMOTIONAL INCONTINENCE", "MHIS-NACC", "", "ABSENT", "", "0", 0, "", "", "", "", "", 1.0, "SCREENING 1", -7, "TREATMENT", "2014-02-08", -13], [815, "CDISCPILOT01", "QS", "01-704-1010", 1009, "MHITM09", "HISTORY OF HYPERTENSION", "MHIS-NACC", "", "PRESENT", "", "1", 1, "", "", "", "", "", 1.0, "SCREENING 1", -7, "TREATMENT", "2014-02-08", -13], [816, "CDISCPILOT01", "QS", "01-704-1010", 1010, "MHITM10", "HISTORY OF STROKES", "MHIS-NACC", "", "ABSENT", "", "0", 0, "", "", "", "", "", 1.0, "SCREENING 1", -7, "TREATMENT", "2014-02-08", -13], [817, "CDISCPILOT01", "QS", "01-704-1010", 1011, "MHITM11", "EVIDENCE OF ASSOCIATED ATHEROSCLEROSIS", "MHIS-NACC", "", "ABSENT", "", "0", 0, "", "", "", "", "", 1.0, "SCREENING 1", -7, "TREATMENT", "2014-02-08", -13], [818, "CDISCPILOT01", "QS", "01-704-1010", 1012, "MHITM12", "FOCAL NEUROLOGICAL SYMPTOMS", "MHIS-NACC", "", "ABSENT", "", "0", 0, "", "", "", "", "", 1.0, "SCREENING 1", -7, "TREATMENT", "2014-02-08", -13], [819, "CDISCPILOT01", "QS", "01-704-1010", 1013, "MHITM13", "FOCAL NEUROLOGICAL SIGNS", "MHIS-NACC", "", "ABSENT", "", "0", 0, "", "", "", "", "", 1.0, "SCREENING 1", -7, "TREATMENT", "2014-02-08", -13], [820, "CDISCPILOT01", "QS", "01-704-1017", 1001, "MHITM01", "ABRUPT ONSET", "MHIS-NACC", "", "ABSENT", "", "0", 0, "", "", "", "", "", 1.0, "SCREENING 1", -7, "TREATMENT", "2013-09-20", -16], [821, "CDISCPILOT01", "QS", "01-704-1017", 1002, "MHITM02", "STEPWISE DETERIORATION", "MHIS-NACC", "", "ABSENT", "", "0", 0, "", "", "", "", "", 1.0, "SCREENING 1", -7, "TREATMENT", "2013-09-20", -16], [822, "CDISCPILOT01", "QS", "01-704-1017", 1003, "MHITM03", "FLUCTUATING COURSE", "MHIS-NACC", "", "ABSENT", "", "0", 0, "", "", "", "", "", 1.0, "SCREENING 1", -7, "TREATMENT", "2013-09-20", -16], [823, "CDISCPILOT01", "QS", "01-704-1017", 1004, "MHITM04", "NOCTURNAL CONFUSION", "MHIS-NACC", "", "ABSENT", "", "0", 0, "", "", "", "", "", 1.0, "SCREENING 1", -7, "TREATMENT", "2013-09-20", -16], [824, "CDISCPILOT01", "QS", "01-704-1017", 1005, "MHITM05", "RELATIVE PRESERVATION OF PERSONALITY", "MHIS-NACC", "", "ABSENT", "", "0", 0, "", "", "", "", "", 1.0, "SCREENING 1", -7, "TREATMENT", "2013-09-20", -16], [825, "CDISCPILOT01", "QS", "01-704-1017", 1006, "MHITM06", "DEPRESSION", "MHIS-NACC", "", "ABSENT", "", "0", 0, "", "", "", "", "", 1.0, "SCREENING 1", -7, "TREATMENT", "2013-09-20", -16], [826, "CDISCPILOT01", "QS", "01-704-1017", 1007, "MHITM07", "SOMATIC COMPLAINTS", "MHIS-NACC", "", "ABSENT", "", "0", 0, "", "", "", "", "", 1.0, "SCREENING 1", -7, "TREATMENT", "2013-09-20", -16], [827, "CDISCPILOT01", "QS", "01-704-1017", 1008, "MHITM08", "EMOTIONAL INCONTINENCE", "MHIS-NACC", "", "ABSENT", "", "0", 0, "", "", "", "", "", 1.0, "SCREENING 1", -7, "TREATMENT", "2013-09-20", -16], [828, "CDISCPILOT01", "QS", "01-704-1017", 1009, "MHITM09", "HISTORY OF HYPERTENSION", "MHIS-NACC", "", "ABSENT", "", "0", 0, "", "", "", "", "", 1.0, "SCREENING 1", -7, "TREATMENT", "2013-09-20", -16], [829, "CDISCPILOT01", "QS", "01-704-1017", 1010, "MHITM10", "HISTORY OF STROKES", "MHIS-NACC", "", "ABSENT", "", "0", 0, "", "", "", "", "", 1.0, "SCREENING 1", -7, "TREATMENT", "2013-09-20", -16], [830, "CDISCPILOT01", "QS", "01-704-1017", 1011, "MHITM11", "EVIDENCE OF ASSOCIATED ATHEROSCLEROSIS", "MHIS-NACC", "", "ABSENT", "", "0", 0, "", "", "", "", "", 1.0, "SCREENING 1", -7, "TREATMENT", "2013-09-20", -16], [831, "CDISCPILOT01", "QS", "01-704-1017", 1012, "MHITM12", "FOCAL NEUROLOGICAL SYMPTOMS", "MHIS-NACC", "", "ABSENT", "", "0", 0, "", "", "", "", "", 1.0, "SCREENING 1", -7, "TREATMENT", "2013-09-20", -16], [832, "CDISCPILOT01", "QS", "01-704-1017", 1013, "MHITM13", "FOCAL NEUROLOGICAL SIGNS", "MHIS-NACC", "", "ABSENT", "", "0", 0, "", "", "", "", "", 1.0, "SCREENING 1", -7, "TREATMENT", "2013-09-20", -16], [833, "CDISCPILOT01", "QS", "01-704-1025", 1001, "MHITM01", "ABRUPT ONSET", "MHIS-NACC", "", "ABSENT", "", "0", 0, "", "", "", "", "", 1.0, "SCREENING 1", -7, "TREATMENT", "2013-09-18", -9], [834, "CDISCPILOT01", "QS", "01-704-1025", 1002, "MHITM02", "STEPWISE DETERIORATION", "MHIS-NACC", "", "ABSENT", "", "0", 0, "", "", "", "", "", 1.0, "SCREENING 1", -7, "TREATMENT", "2013-09-18", -9], [835, "CDISCPILOT01", "QS", "01-704-1025", 1003, "MHITM03", "FLUCTUATING COURSE", "MHIS-NACC", "", "ABSENT", "", "0", 0, "", "", "", "", "", 1.0, "SCREENING 1", -7, "TREATMENT", "2013-09-18", -9], [836, "CDISCPILOT01", "QS", "01-704-1025", 1004, "MHITM04", "NOCTURNAL CONFUSION", "MHIS-NACC", "", "ABSENT", "", "0", 0, "", "", "", "", "", 1.0, "SCREENING 1", -7, "TREATMENT", "2013-09-18", -9], [837, "CDISCPILOT01", "QS", "01-704-1025", 1005, "MHITM05", "RELATIVE PRESERVATION OF PERSONALITY", "MHIS-NACC", "", "ABSENT", "", "0", 0, "", "", "", "", "", 1.0, "SCREENING 1", -7, "TREATMENT", "2013-09-18", -9], [838, "CDISCPILOT01", "QS", "01-704-1025", 1006, "MHITM06", "DEPRESSION", "MHIS-NACC", "", "ABSENT", "", "0", 0, "", "", "", "", "", 1.0, "SCREENING 1", -7, "TREATMENT", "2013-09-18", -9], [839, "CDISCPILOT01", "QS", "01-704-1025", 1007, "MHITM07", "SOMATIC COMPLAINTS", "MHIS-NACC", "", "ABSENT", "", "0", 0, "", "", "", "", "", 1.0, "SCREENING 1", -7, "TREATMENT", "2013-09-18", -9], [840, "CDISCPILOT01", "QS", "01-704-1025", 1008, "MHITM08", "EMOTIONAL INCONTINENCE", "MHIS-NACC", "", "ABSENT", "", "0", 0, "", "", "", "", "", 1.0, "SCREENING 1", -7, "TREATMENT", "2013-09-18", -9], [841, "CDISCPILOT01", "QS", "01-704-1025", 1009, "MHITM09", "HISTORY OF HYPERTENSION", "MHIS-NACC", "", "ABSENT", "", "0", 0, "", "", "", "", "", 1.0, "SCREENING 1", -7, "TREATMENT", "2013-09-18", -9], [842, "CDISCPILOT01", "QS", "01-704-1025", 1010, "MHITM10", "HISTORY OF STROKES", "MHIS-NACC", "", "ABSENT", "", "0", 0, "", "", "", "", "", 1.0, "SCREENING 1", -7, "TREATMENT", "2013-09-18", -9], [843, "CDISCPILOT01", "QS", "01-704-1025", 1011, "MHITM11", "EVIDENCE OF ASSOCIATED ATHEROSCLEROSIS", "MHIS-NACC", "", "ABSENT", "", "0", 0, "", "", "", "", "", 1.0, "SCREENING 1", -7, "TREATMENT", "2013-09-18", -9], [844, "CDISCPILOT01", "QS", "01-704-1025", 1012, "MHITM12", "FOCAL NEUROLOGICAL SYMPTOMS", "MHIS-NACC", "", "ABSENT", "", "0", 0, "", "", "", "", "", 1.0, "SCREENING 1", -7, "TREATMENT", "2013-09-18", -9], [845, "CDISCPILOT01", "QS", "01-704-1025", 1013, "MHITM13", "FOCAL NEUROLOGICAL SIGNS", "MHIS-NACC", "", "ABSENT", "", "0", 0, "", "", "", "", "", 1.0, "SCREENING 1", -7, "TREATMENT", "2013-09-18", -9], [846, "CDISCPILOT01", "QS", "01-704-1065", 1001, "MHITM01", "ABRUPT ONSET", "MHIS-NACC", "", "ABSENT", "", "0", 0, "", "", "", "", "", 1.0, "SCREENING 1", -7, "TREATMENT", "2013-10-17", -7], [847, "CDISCPILOT01", "QS", "01-704-1065", 1002, "MHITM02", "STEPWISE DETERIORATION", "MHIS-NACC", "", "ABSENT", "", "0", 0, "", "", "", "", "", 1.0, "SCREENING 1", -7, "TREATMENT", "2013-10-17", -7], [848, "CDISCPILOT01", "QS", "01-704-1065", 1003, "MHITM03", "FLUCTUATING COURSE", "MHIS-NACC", "", "PRESENT", "", "2", 2, "", "", "", "", "", 1.0, "SCREENING 1", -7, "TREATMENT", "2013-10-17", -7], [849, "CDISCPILOT01", "QS", "01-704-1065", 1004, "MHITM04", "NOCTURNAL CONFUSION", "MHIS-NACC", "", "ABSENT", "", "0", 0, "", "", "", "", "", 1.0, "SCREENING 1", -7, "TREATMENT", "2013-10-17", -7], [850, "CDISCPILOT01", "QS", "01-704-1065", 1005, "MHITM05", "RELATIVE PRESERVATION OF PERSONALITY", "MHIS-NACC", "", "ABSENT", "", "0", 0, "", "", "", "", "", 1.0, "SCREENING 1", -7, "TREATMENT", "2013-10-17", -7], [851, "CDISCPILOT01", "QS", "01-704-1065", 1006, "MHITM06", "DEPRESSION", "MHIS-NACC", "", "ABSENT", "", "0", 0, "", "", "", "", "", 1.0, "SCREENING 1", -7, "TREATMENT", "2013-10-17", -7], [852, "CDISCPILOT01", "QS", "01-704-1065", 1007, "MHITM07", "SOMATIC COMPLAINTS", "MHIS-NACC", "", "ABSENT", "", "0", 0, "", "", "", "", "", 1.0, "SCREENING 1", -7, "TREATMENT", "2013-10-17", -7], [853, "CDISCPILOT01", "QS", "01-704-1065", 1008, "MHITM08", "EMOTIONAL INCONTINENCE", "MHIS-NACC", "", "ABSENT", "", "0", 0, "", "", "", "", "", 1.0, "SCREENING 1", -7, "TREATMENT", "2013-10-17", -7], [854, "CDISCPILOT01", "QS", "01-704-1065", 1009, "MHITM09", "HISTORY OF HYPERTENSION", "MHIS-NACC", "", "PRESENT", "", "1", 1, "", "", "", "", "", 1.0, "SCREENING 1", -7, "TREATMENT", "2013-10-17", -7], [855, "CDISCPILOT01", "QS", "01-704-1065", 1010, "MHITM10", "HISTORY OF STROKES", "MHIS-NACC", "", "ABSENT", "", "0", 0, "", "", "", "", "", 1.0, "SCREENING 1", -7, "TREATMENT", "2013-10-17", -7], [856, "CDISCPILOT01", "QS", "01-704-1065", 1011, "MHITM11", "EVIDENCE OF ASSOCIATED ATHEROSCLEROSIS", "MHIS-NACC", "", "ABSENT", "", "0", 0, "", "", "", "", "", 1.0, "SCREENING 1", -7, "TREATMENT", "2013-10-17", -7], [857, "CDISCPILOT01", "QS", "01-704-1065", 1012, "MHITM12", "FOCAL NEUROLOGICAL SYMPTOMS", "MHIS-NACC", "", "ABSENT", "", "0", 0, "", "", "", "", "", 1.0, "SCREENING 1", -7, "TREATMENT", "2013-10-17", -7], [858, "CDISCPILOT01", "QS", "01-704-1065", 1013, "MHITM13", "FOCAL NEUROLOGICAL SIGNS", "MHIS-NACC", "", "ABSENT", "", "0", 0, "", "", "", "", "", 1.0, "SCREENING 1", -7, "TREATMENT", "2013-10-17", -7], [859, "CDISCPILOT01", "QS", "01-704-1074", 1001, "MHITM01", "ABRUPT ONSET", "MHIS-NACC", "", "ABSENT", "", "0", 0, "", "", "", "", "", 1.0, "SCREENING 1", -7, "TREATMENT", "2014-01-19", -3], [860, "CDISCPILOT01", "QS", "01-704-1074", 1002, "MHITM02", "STEPWISE DETERIORATION", "MHIS-NACC", "", "ABSENT", "", "0", 0, "", "", "", "", "", 1.0, "SCREENING 1", -7, "TREATMENT", "2014-01-19", -3], [861, "CDISCPILOT01", "QS", "01-704-1074", 1003, "MHITM03", "FLUCTUATING COURSE", "MHIS-NACC", "", "ABSENT", "", "0", 0, "", "", "", "", "", 1.0, "SCREENING 1", -7, "TREATMENT", "2014-01-19", -3], [862, "CDISCPILOT01", "QS", "01-704-1074", 1004, "MHITM04", "NOCTURNAL CONFUSION", "MHIS-NACC", "", "ABSENT", "", "0", 0, "", "", "", "", "", 1.0, "SCREENING 1", -7, "TREATMENT", "2014-01-19", -3], [863, "CDISCPILOT01", "QS", "01-704-1074", 1005, "MHITM05", "RELATIVE PRESERVATION OF PERSONALITY", "MHIS-NACC", "", "ABSENT", "", "0", 0, "", "", "", "", "", 1.0, "SCREENING 1", -7, "TREATMENT", "2014-01-19", -3], [864, "CDISCPILOT01", "QS", "01-704-1074", 1006, "MHITM06", "DEPRESSION", "MHIS-NACC", "", "ABSENT", "", "0", 0, "", "", "", "", "", 1.0, "SCREENING 1", -7, "TREATMENT", "2014-01-19", -3], [865, "CDISCPILOT01", "QS", "01-704-1074", 1007, "MHITM07", "SOMATIC COMPLAINTS", "MHIS-NACC", "", "ABSENT", "", "0", 0, "", "", "", "", "", 1.0, "SCREENING 1", -7, "TREATMENT", "2014-01-19", -3], [866, "CDISCPILOT01", "QS", "01-704-1074", 1008, "MHITM08", "EMOTIONAL INCONTINENCE", "MHIS-NACC", "", "ABSENT", "", "0", 0, "", "", "", "", "", 1.0, "SCREENING 1", -7, "TREATMENT", "2014-01-19", -3], [867, "CDISCPILOT01", "QS", "01-704-1074", 1009, "MHITM09", "HISTORY OF HYPERTENSION", "MHIS-NACC", "", "PRESENT", "", "1", 1, "", "", "", "", "", 1.0, "SCREENING 1", -7, "TREATMENT", "2014-01-19", -3], [868, "CDISCPILOT01", "QS", "01-704-1074", 1010, "MHITM10", "HISTORY OF STROKES", "MHIS-NACC", "", "ABSENT", "", "0", 0, "", "", "", "", "", 1.0, "SCREENING 1", -7, "TREATMENT", "2014-01-19", -3], [869, "CDISCPILOT01", "QS", "01-704-1074", 1011, "MHITM11", "EVIDENCE OF ASSOCIATED ATHEROSCLEROSIS", "MHIS-NACC", "", "ABSENT", "", "0", 0, "", "", "", "", "", 1.0, "SCREENING 1", -7, "TREATMENT", "2014-01-19", -3], [870, "CDISCPILOT01", "QS", "01-704-1074", 1012, "MHITM12", "FOCAL NEUROLOGICAL SYMPTOMS", "MHIS-NACC", "", "ABSENT", "", "0", 0, "", "", "", "", "", 1.0, "SCREENING 1", -7, "TREATMENT", "2014-01-19", -3], [871, "CDISCPILOT01", "QS", "01-704-1074", 1013, "MHITM13", "FOCAL NEUROLOGICAL SIGNS", "MHIS-NACC", "", "ABSENT", "", "0", 0, "", "", "", "", "", 1.0, "SCREENING 1", -7, "TREATMENT", "2014-01-19", -3], [872, "CDISCPILOT01", "QS", "01-704-1093", 1001, "MHITM01", "ABRUPT ONSET", "MHIS-NACC", "", "ABSENT", "", "0", 0, "", "", "", "", "", 1.0, "SCREENING 1", -7, "TREATMENT", "2013-02-22", -21], [873, "CDISCPILOT01", "QS", "01-704-1093", 1002, "MHITM02", "STEPWISE DETERIORATION", "MHIS-NACC", "", "ABSENT", "", "0", 0, "", "", "", "", "", 1.0, "SCREENING 1", -7, "TREATMENT", "2013-02-22", -21], [874, "CDISCPILOT01", "QS", "01-704-1093", 1003, "MHITM03", "FLUCTUATING COURSE", "MHIS-NACC", "", "ABSENT", "", "0", 0, "", "", "", "", "", 1.0, "SCREENING 1", -7, "TREATMENT", "2013-02-22", -21], [875, "CDISCPILOT01", "QS", "01-704-1093", 1004, "MHITM04", "NOCTURNAL CONFUSION", "MHIS-NACC", "", "ABSENT", "", "0", 0, "", "", "", "", "", 1.0, "SCREENING 1", -7, "TREATMENT", "2013-02-22", -21], [876, "CDISCPILOT01", "QS", "01-704-1093", 1005, "MHITM05", "RELATIVE PRESERVATION OF PERSONALITY", "MHIS-NACC", "", "PRESENT", "", "1", 1, "", "", "", "", "", 1.0, "SCREENING 1", -7, "TREATMENT", "2013-02-22", -21], [877, "CDISCPILOT01", "QS", "01-704-1093", 1006, "MHITM06", "DEPRESSION", "MHIS-NACC", "", "ABSENT", "", "0", 0, "", "", "", "", "", 1.0, "SCREENING 1", -7, "TREATMENT", "2013-02-22", -21], [878, "CDISCPILOT01", "QS", "01-704-1093", 1007, "MHITM07", "SOMATIC COMPLAINTS", "MHIS-NACC", "", "ABSENT", "", "0", 0, "", "", "", "", "", 1.0, "SCREENING 1", -7, "TREATMENT", "2013-02-22", -21], [879, "CDISCPILOT01", "QS", "01-704-1093", 1008, "MHITM08", "EMOTIONAL INCONTINENCE", "MHIS-NACC", "", "ABSENT", "", "0", 0, "", "", "", "", "", 1.0, "SCREENING 1", -7, "TREATMENT", "2013-02-22", -21], [880, "CDISCPILOT01", "QS", "01-704-1093", 1009, "MHITM09", "HISTORY OF HYPERTENSION", "MHIS-NACC", "", "PRESENT", "", "1", 1, "", "", "", "", "", 1.0, "SCREENING 1", -7, "TREATMENT", "2013-02-22", -21], [881, "CDISCPILOT01", "QS", "01-704-1093", 1010, "MHITM10", "HISTORY OF STROKES", "MHIS-NACC", "", "ABSENT", "", "0", 0, "", "", "", "", "", 1.0, "SCREENING 1", -7, "TREATMENT", "2013-02-22", -21], [882, "CDISCPILOT01", "QS", "01-704-1093", 1011, "MHITM11", "EVIDENCE OF ASSOCIATED ATHEROSCLEROSIS", "MHIS-NACC", "", "ABSENT", "", "0", 0, "", "", "", "", "", 1.0, "SCREENING 1", -7, "TREATMENT", "2013-02-22", -21], [883, "CDISCPILOT01", "QS", "01-704-1093", 1012, "MHITM12", "FOCAL NEUROLOGICAL SYMPTOMS", "MHIS-NACC", "", "ABSENT", "", "0", 0, "", "", "", "", "", 1.0, "SCREENING 1", -7, "TREATMENT", "2013-02-22", -21], [884, "CDISCPILOT01", "QS", "01-704-1093", 1013, "MHITM13", "FOCAL NEUROLOGICAL SIGNS", "MHIS-NACC", "", "ABSENT", "", "0", 0, "", "", "", "", "", 1.0, "SCREENING 1", -7, "TREATMENT", "2013-02-22", -21], [885, "CDISCPILOT01", "QS", "01-704-1114", 1001, "MHITM01", "ABRUPT ONSET", "MHIS-NACC", "", "ABSENT", "", "0", 0, "", "", "", "", "", 1.0, "SCREENING 1", -7, "TREATMENT", "2013-01-09", -14], [886, "CDISCPILOT01", "QS", "01-704-1114", 1002, "MHITM02", "STEPWISE DETERIORATION", "MHIS-NACC", "", "ABSENT", "", "0", 0, "", "", "", "", "", 1.0, "SCREENING 1", -7, "TREATMENT", "2013-01-09", -14], [887, "CDISCPILOT01", "QS", "01-704-1114", 1003, "MHITM03", "FLUCTUATING COURSE", "MHIS-NACC", "", "ABSENT", "", "0", 0, "", "", "", "", "", 1.0, "SCREENING 1", -7, "TREATMENT", "2013-01-09", -14], [888, "CDISCPILOT01", "QS", "01-704-1114", 1004, "MHITM04", "NOCTURNAL CONFUSION", "MHIS-NACC", "", "ABSENT", "", "0", 0, "", "", "", "", "", 1.0, "SCREENING 1", -7, "TREATMENT", "2013-01-09", -14], [889, "CDISCPILOT01", "QS", "01-704-1114", 1005, "MHITM05", "RELATIVE PRESERVATION OF PERSONALITY", "MHIS-NACC", "", "ABSENT", "", "0", 0, "", "", "", "", "", 1.0, "SCREENING 1", -7, "TREATMENT", "2013-01-09", -14], [890, "CDISCPILOT01", "QS", "01-704-1114", 1006, "MHITM06", "DEPRESSION", "MHIS-NACC", "", "ABSENT", "", "0", 0, "", "", "", "", "", 1.0, "SCREENING 1", -7, "TREATMENT", "2013-01-09", -14], [891, "CDISCPILOT01", "QS", "01-704-1114", 1007, "MHITM07", "SOMATIC COMPLAINTS", "MHIS-NACC", "", "ABSENT", "", "0", 0, "", "", "", "", "", 1.0, "SCREENING 1", -7, "TREATMENT", "2013-01-09", -14], [892, "CDISCPILOT01", "QS", "01-704-1114", 1008, "MHITM08", "EMOTIONAL INCONTINENCE", "MHIS-NACC", "", "ABSENT", "", "0", 0, "", "", "", "", "", 1.0, "SCREENING 1", -7, "TREATMENT", "2013-01-09", -14], [893, "CDISCPILOT01", "QS", "01-704-1114", 1009, "MHITM09", "HISTORY OF HYPERTENSION", "MHIS-NACC", "", "ABSENT", "", "0", 0, "", "", "", "", "", 1.0, "SCREENING 1", -7, "TREATMENT", "2013-01-09", -14], [894, "CDISCPILOT01", "QS", "01-704-1114", 1010, "MHITM10", "HISTORY OF STROKES", "MHIS-NACC", "", "ABSENT", "", "0", 0, "", "", "", "", "", 1.0, "SCREENING 1", -7, "TREATMENT", "2013-01-09", -14], [895, "CDISCPILOT01", "QS", "01-704-1114", 1011, "MHITM11", "EVIDENCE OF ASSOCIATED ATHEROSCLEROSIS", "MHIS-NACC", "", "PRESENT", "", "1", 1, "", "", "", "", "", 1.0, "SCREENING 1", -7, "TREATMENT", "2013-01-09", -14], [896, "CDISCPILOT01", "QS", "01-704-1114", 1012, "MHITM12", "FOCAL NEUROLOGICAL SYMPTOMS", "MHIS-NACC", "", "ABSENT", "", "0", 0, "", "", "", "", "", 1.0, "SCREENING 1", -7, "TREATMENT", "2013-01-09", -14], [897, "CDISCPILOT01", "QS", "01-704-1114", 1013, "MHITM13", "FOCAL NEUROLOGICAL SIGNS", "MHIS-NACC", "", "ABSENT", "", "0", 0, "", "", "", "", "", 1.0, "SCREENING 1", -7, "TREATMENT", "2013-01-09", -14], [898, "CDISCPILOT01", "QS", "01-704-1120", 1001, "MHITM01", "ABRUPT ONSET", "MHIS-NACC", "", "ABSENT", "", "0", 0, "", "", "", "", "", 1.0, "SCREENING 1", -7, "TREATMENT", "2013-11-18", -14], [899, "CDISCPILOT01", "QS", "01-704-1120", 1002, "MHITM02", "STEPWISE DETERIORATION", "MHIS-NACC", "", "ABSENT", "", "0", 0, "", "", "", "", "", 1.0, "SCREENING 1", -7, "TREATMENT", "2013-11-18", -14], [900, "CDISCPILOT01", "QS", "01-704-1120", 1003, "MHITM03", "FLUCTUATING COURSE", "MHIS-NACC", "", "ABSENT", "", "0", 0, "", "", "", "", "", 1.0, "SCREENING 1", -7, "TREATMENT", "2013-11-18", -14], [901, "CDISCPILOT01", "QS", "01-704-1120", 1004, "MHITM04", "NOCTURNAL CONFUSION", "MHIS-NACC", "", "ABSENT", "", "0", 0, "", "", "", "", "", 1.0, "SCREENING 1", -7, "TREATMENT", "2013-11-18", -14], [902, "CDISCPILOT01", "QS", "01-704-1120", 1005, "MHITM05", "RELATIVE PRESERVATION OF PERSONALITY", "MHIS-NACC", "", "ABSENT", "", "0", 0, "", "", "", "", "", 1.0, "SCREENING 1", -7, "TREATMENT", "2013-11-18", -14], [903, "CDISCPILOT01", "QS", "01-704-1120", 1006, "MHITM06", "DEPRESSION", "MHIS-NACC", "", "ABSENT", "", "0", 0, "", "", "", "", "", 1.0, "SCREENING 1", -7, "TREATMENT", "2013-11-18", -14], [904, "CDISCPILOT01", "QS", "01-704-1120", 1007, "MHITM07", "SOMATIC COMPLAINTS", "MHIS-NACC", "", "ABSENT", "", "0", 0, "", "", "", "", "", 1.0, "SCREENING 1", -7, "TREATMENT", "2013-11-18", -14], [905, "CDISCPILOT01", "QS", "01-704-1120", 1008, "MHITM08", "EMOTIONAL INCONTINENCE", "MHIS-NACC", "", "ABSENT", "", "0", 0, "", "", "", "", "", 1.0, "SCREENING 1", -7, "TREATMENT", "2013-11-18", -14], [906, "CDISCPILOT01", "QS", "01-704-1120", 1009, "MHITM09", "HISTORY OF HYPERTENSION", "MHIS-NACC", "", "ABSENT", "", "0", 0, "", "", "", "", "", 1.0, "SCREENING 1", -7, "TREATMENT", "2013-11-18", -14], [907, "CDISCPILOT01", "QS", "01-704-1120", 1010, "MHITM10", "HISTORY OF STROKES", "MHIS-NACC", "", "ABSENT", "", "0", 0, "", "", "", "", "", 1.0, "SCREENING 1", -7, "TREATMENT", "2013-11-18", -14], [908, "CDISCPILOT01", "QS", "01-704-1120", 1011, "MHITM11", "EVIDENCE OF ASSOCIATED ATHEROSCLEROSIS", "MHIS-NACC", "", "ABSENT", "", "0", 0, "", "", "", "", "", 1.0, "SCREENING 1", -7, "TREATMENT", "2013-11-18", -14], [909, "CDISCPILOT01", "QS", "01-704-1120", 1012, "MHITM12", "FOCAL NEUROLOGICAL SYMPTOMS", "MHIS-NACC", "", "ABSENT", "", "0", 0, "", "", "", "", "", 1.0, "SCREENING 1", -7, "TREATMENT", "2013-11-18", -14], [910, "CDISCPILOT01", "QS", "01-704-1120", 1013, "MHITM13", "FOCAL NEUROLOGICAL SIGNS", "MHIS-NACC", "", "ABSENT", "", "0", 0, "", "", "", "", "", 1.0, "SCREENING 1", -7, "TREATMENT", "2013-11-18", -14], [911, "CDISCPILOT01", "QS", "01-704-1127", 1001, "MHITM01", "ABRUPT ONSET", "MHIS-NACC", "", "ABSENT", "", "0", 0, "", "", "", "", "", 1.0, "SCREENING 1", -7, "TREATMENT", "2013-09-16", -16], [912, "CDISCPILOT01", "QS", "01-704-1127", 1002, "MHITM02", "STEPWISE DETERIORATION", "MHIS-NACC", "", "ABSENT", "", "0", 0, "", "", "", "", "", 1.0, "SCREENING 1", -7, "TREATMENT", "2013-09-16", -16], [913, "CDISCPILOT01", "QS", "01-704-1127", 1003, "MHITM03", "FLUCTUATING COURSE", "MHIS-NACC", "", "ABSENT", "", "0", 0, "", "", "", "", "", 1.0, "SCREENING 1", -7, "TREATMENT", "2013-09-16", -16], [914, "CDISCPILOT01", "QS", "01-704-1127", 1004, "MHITM04", "NOCTURNAL CONFUSION", "MHIS-NACC", "", "ABSENT", "", "0", 0, "", "", "", "", "", 1.0, "SCREENING 1", -7, "TREATMENT", "2013-09-16", -16], [915, "CDISCPILOT01", "QS", "01-704-1127", 1005, "MHITM05", "RELATIVE PRESERVATION OF PERSONALITY", "MHIS-NACC", "", "ABSENT", "", "0", 0, "", "", "", "", "", 1.0, "SCREENING 1", -7, "TREATMENT", "2013-09-16", -16], [916, "CDISCPILOT01", "QS", "01-704-1127", 1006, "MHITM06", "DEPRESSION", "MHIS-NACC", "", "ABSENT", "", "0", 0, "", "", "", "", "", 1.0, "SCREENING 1", -7, "TREATMENT", "2013-09-16", -16], [917, "CDISCPILOT01", "QS", "01-704-1127", 1007, "MHITM07", "SOMATIC COMPLAINTS", "MHIS-NACC", "", "ABSENT", "", "0", 0, "", "", "", "", "", 1.0, "SCREENING 1", -7, "TREATMENT", "2013-09-16", -16], [918, "CDISCPILOT01", "QS", "01-704-1127", 1008, "MHITM08", "EMOTIONAL INCONTINENCE", "MHIS-NACC", "", "ABSENT", "", "0", 0, "", "", "", "", "", 1.0, "SCREENING 1", -7, "TREATMENT", "2013-09-16", -16], [919, "CDISCPILOT01", "QS", "01-704-1127", 1009, "MHITM09", "HISTORY OF HYPERTENSION", "MHIS-NACC", "", "ABSENT", "", "0", 0, "", "", "", "", "", 1.0, "SCREENING 1", -7, "TREATMENT", "2013-09-16", -16], [920, "CDISCPILOT01", "QS", "01-704-1127", 1010, "MHITM10", "HISTORY OF STROKES", "MHIS-NACC", "", "ABSENT", "", "0", 0, "", "", "", "", "", 1.0, "SCREENING 1", -7, "TREATMENT", "2013-09-16", -16], [921, "CDISCPILOT01", "QS", "01-704-1127", 1011, "MHITM11", "EVIDENCE OF ASSOCIATED ATHEROSCLEROSIS", "MHIS-NACC", "", "ABSENT", "", "0", 0, "", "", "", "", "", 1.0, "SCREENING 1", -7, "TREATMENT", "2013-09-16", -16], [922, "CDISCPILOT01", "QS", "01-704-1127", 1012, "MHITM12", "FOCAL NEUROLOGICAL SYMPTOMS", "MHIS-NACC", "", "ABSENT", "", "0", 0, "", "", "", "", "", 1.0, "SCREENING 1", -7, "TREATMENT", "2013-09-16", -16], [923, "CDISCPILOT01", "QS", "01-704-1127", 1013, "MHITM13", "FOCAL NEUROLOGICAL SIGNS", "MHIS-NACC", "", "ABSENT", "", "0", 0, "", "", "", "", "", 1.0, "SCREENING 1", -7, "TREATMENT", "2013-09-16", -16], [924, "CDISCPILOT01", "QS", "01-704-1135", 1001, "MHITM01", "ABRUPT ONSET", "MHIS-NACC", "", "ABSENT", "", "0", 0, "", "", "", "", "", 1.0, "SCREENING 1", -7, "TREATMENT", "2013-10-23", -8], [925, "CDISCPILOT01", "QS", "01-704-1135", 1002, "MHITM02", "STEPWISE DETERIORATION", "MHIS-NACC", "", "ABSENT", "", "0", 0, "", "", "", "", "", 1.0, "SCREENING 1", -7, "TREATMENT", "2013-10-23", -8], [926, "CDISCPILOT01", "QS", "01-704-1135", 1003, "MHITM03", "FLUCTUATING COURSE", "MHIS-NACC", "", "ABSENT", "", "0", 0, "", "", "", "", "", 1.0, "SCREENING 1", -7, "TREATMENT", "2013-10-23", -8], [927, "CDISCPILOT01", "QS", "01-704-1135", 1004, "MHITM04", "NOCTURNAL CONFUSION", "MHIS-NACC", "", "ABSENT", "", "0", 0, "", "", "", "", "", 1.0, "SCREENING 1", -7, "TREATMENT", "2013-10-23", -8], [928, "CDISCPILOT01", "QS", "01-704-1135", 1005, "MHITM05", "RELATIVE PRESERVATION OF PERSONALITY", "MHIS-NACC", "", "ABSENT", "", "0", 0, "", "", "", "", "", 1.0, "SCREENING 1", -7, "TREATMENT", "2013-10-23", -8], [929, "CDISCPILOT01", "QS", "01-704-1135", 1006, "MHITM06", "DEPRESSION", "MHIS-NACC", "", "ABSENT", "", "0", 0, "", "", "", "", "", 1.0, "SCREENING 1", -7, "TREATMENT", "2013-10-23", -8], [930, "CDISCPILOT01", "QS", "01-704-1135", 1007, "MHITM07", "SOMATIC COMPLAINTS", "MHIS-NACC", "", "ABSENT", "", "0", 0, "", "", "", "", "", 1.0, "SCREENING 1", -7, "TREATMENT", "2013-10-23", -8], [931, "CDISCPILOT01", "QS", "01-704-1135", 1008, "MHITM08", "EMOTIONAL INCONTINENCE", "MHIS-NACC", "", "ABSENT", "", "0", 0, "", "", "", "", "", 1.0, "SCREENING 1", -7, "TREATMENT", "2013-10-23", -8], [932, "CDISCPILOT01", "QS", "01-704-1135", 1009, "MHITM09", "HISTORY OF HYPERTENSION", "MHIS-NACC", "", "ABSENT", "", "0", 0, "", "", "", "", "", 1.0, "SCREENING 1", -7, "TREATMENT", "2013-10-23", -8], [933, "CDISCPILOT01", "QS", "01-704-1135", 1010, "MHITM10", "HISTORY OF STROKES", "MHIS-NACC", "", "ABSENT", "", "0", 0, "", "", "", "", "", 1.0, "SCREENING 1", -7, "TREATMENT", "2013-10-23", -8], [934, "CDISCPILOT01", "QS", "01-704-1135", 1011, "MHITM11", "EVIDENCE OF ASSOCIATED ATHEROSCLEROSIS", "MHIS-NACC", "", "ABSENT", "", "0", 0, "", "", "", "", "", 1.0, "SCREENING 1", -7, "TREATMENT", "2013-10-23", -8], [935, "CDISCPILOT01", "QS", "01-704-1135", 1012, "MHITM12", "FOCAL NEUROLOGICAL SYMPTOMS", "MHIS-NACC", "", "ABSENT", "", "0", 0, "", "", "", "", "", 1.0, "SCREENING 1", -7, "TREATMENT", "2013-10-23", -8], [936, "CDISCPILOT01", "QS", "01-704-1135", 1013, "MHITM13", "FOCAL NEUROLOGICAL SIGNS", "MHIS-NACC", "", "ABSENT", "", "0", 0, "", "", "", "", "", 1.0, "SCREENING 1", -7, "TREATMENT", "2013-10-23", -8], [937, "CDISCPILOT01", "QS", "01-704-1164", 1001, "MHITM01", "ABRUPT ONSET", "MHIS-NACC", "", "ABSENT", "", "0", 0, "", "", "", "", "", 1.0, "SCREENING 1", -7, "TREATMENT", "2012-09-11", -8], [938, "CDISCPILOT01", "QS", "01-704-1164", 1002, "MHITM02", "STEPWISE DETERIORATION", "MHIS-NACC", "", "ABSENT", "", "0", 0, "", "", "", "", "", 1.0, "SCREENING 1", -7, "TREATMENT", "2012-09-11", -8], [939, "CDISCPILOT01", "QS", "01-704-1164", 1003, "MHITM03", "FLUCTUATING COURSE", "MHIS-NACC", "", "ABSENT", "", "0", 0, "", "", "", "", "", 1.0, "SCREENING 1", -7, "TREATMENT", "2012-09-11", -8], [940, "CDISCPILOT01", "QS", "01-704-1164", 1004, "MHITM04", "NOCTURNAL CONFUSION", "MHIS-NACC", "", "ABSENT", "", "0", 0, "", "", "", "", "", 1.0, "SCREENING 1", -7, "TREATMENT", "2012-09-11", -8], [941, "CDISCPILOT01", "QS", "01-704-1164", 1005, "MHITM05", "RELATIVE PRESERVATION OF PERSONALITY", "MHIS-NACC", "", "ABSENT", "", "0", 0, "", "", "", "", "", 1.0, "SCREENING 1", -7, "TREATMENT", "2012-09-11", -8], [942, "CDISCPILOT01", "QS", "01-704-1164", 1006, "MHITM06", "DEPRESSION", "MHIS-NACC", "", "ABSENT", "", "0", 0, "", "", "", "", "", 1.0, "SCREENING 1", -7, "TREATMENT", "2012-09-11", -8], [943, "CDISCPILOT01", "QS", "01-704-1164", 1007, "MHITM07", "SOMATIC COMPLAINTS", "MHIS-NACC", "", "ABSENT", "", "0", 0, "", "", "", "", "", 1.0, "SCREENING 1", -7, "TREATMENT", "2012-09-11", -8], [944, "CDISCPILOT01", "QS", "01-704-1164", 1008, "MHITM08", "EMOTIONAL INCONTINENCE", "MHIS-NACC", "", "ABSENT", "", "0", 0, "", "", "", "", "", 1.0, "SCREENING 1", -7, "TREATMENT", "2012-09-11", -8], [945, "CDISCPILOT01", "QS", "01-704-1164", 1009, "MHITM09", "HISTORY OF HYPERTENSION", "MHIS-NACC", "", "ABSENT", "", "0", 0, "", "", "", "", "", 1.0, "SCREENING 1", -7, "TREATMENT", "2012-09-11", -8], [946, "CDISCPILOT01", "QS", "01-704-1164", 1010, "MHITM10", "HISTORY OF STROKES", "MHIS-NACC", "", "ABSENT", "", "0", 0, "", "", "", "", "", 1.0, "SCREENING 1", -7, "TREATMENT", "2012-09-11", -8], [947, "CDISCPILOT01", "QS", "01-704-1164", 1011, "MHITM11", "EVIDENCE OF ASSOCIATED ATHEROSCLEROSIS", "MHIS-NACC", "", "ABSENT", "", "0", 0, "", "", "", "", "", 1.0, "SCREENING 1", -7, "TREATMENT", "2012-09-11", -8], [948, "CDISCPILOT01", "QS", "01-704-1164", 1012, "MHITM12", "FOCAL NEUROLOGICAL SYMPTOMS", "MHIS-NACC", "", "ABSENT", "", "0", 0, "", "", "", "", "", 1.0, "SCREENING 1", -7, "TREATMENT", "2012-09-11", -8], [949, "CDISCPILOT01", "QS", "01-704-1164", 1013, "MHITM13", "FOCAL NEUROLOGICAL SIGNS", "MHIS-NACC", "", "ABSENT", "", "0", 0, "", "", "", "", "", 1.0, "SCREENING 1", -7, "TREATMENT", "2012-09-11", -8], [950, "CDISCPILOT01", "QS", "01-704-1218", 1001, "MHITM01", "ABRUPT ONSET", "MHIS-NACC", "", "ABSENT", "", "0", 0, "", "", "", "", "", 1.0, "SCREENING 1", -7, "TREATMENT", "2012-11-11", -8], [951, "CDISCPILOT01", "QS", "01-704-1218", 1002, "MHITM02", "STEPWISE DETERIORATION", "MHIS-NACC", "", "ABSENT", "", "0", 0, "", "", "", "", "", 1.0, "SCREENING 1", -7, "TREATMENT", "2012-11-11", -8], [952, "CDISCPILOT01", "QS", "01-704-1218", 1003, "MHITM03", "FLUCTUATING COURSE", "MHIS-NACC", "", "ABSENT", "", "0", 0, "", "", "", "", "", 1.0, "SCREENING 1", -7, "TREATMENT", "2012-11-11", -8], [953, "CDISCPILOT01", "QS", "01-704-1218", 1004, "MHITM04", "NOCTURNAL CONFUSION", "MHIS-NACC", "", "ABSENT", "", "0", 0, "", "", "", "", "", 1.0, "SCREENING 1", -7, "TREATMENT", "2012-11-11", -8], [954, "CDISCPILOT01", "QS", "01-704-1218", 1005, "MHITM05", "RELATIVE PRESERVATION OF PERSONALITY", "MHIS-NACC", "", "ABSENT", "", "0", 0, "", "", "", "", "", 1.0, "SCREENING 1", -7, "TREATMENT", "2012-11-11", -8], [955, "CDISCPILOT01", "QS", "01-704-1218", 1006, "MHITM06", "DEPRESSION", "MHIS-NACC", "", "ABSENT", "", "0", 0, "", "", "", "", "", 1.0, "SCREENING 1", -7, "TREATMENT", "2012-11-11", -8], [956, "CDISCPILOT01", "QS", "01-704-1218", 1007, "MHITM07", "SOMATIC COMPLAINTS", "MHIS-NACC", "", "ABSENT", "", "0", 0, "", "", "", "", "", 1.0, "SCREENING 1", -7, "TREATMENT", "2012-11-11", -8], [957, "CDISCPILOT01", "QS", "01-704-1218", 1008, "MHITM08", "EMOTIONAL INCONTINENCE", "MHIS-NACC", "", "ABSENT", "", "0", 0, "", "", "", "", "", 1.0, "SCREENING 1", -7, "TREATMENT", "2012-11-11", -8], [958, "CDISCPILOT01", "QS", "01-704-1218", 1009, "MHITM09", "HISTORY OF HYPERTENSION", "MHIS-NACC", "", "PRESENT", "", "1", 1, "", "", "", "", "", 1.0, "SCREENING 1", -7, "TREATMENT", "2012-11-11", -8], [959, "CDISCPILOT01", "QS", "01-704-1218", 1010, "MHITM10", "HISTORY OF STROKES", "MHIS-NACC", "", "ABSENT", "", "0", 0, "", "", "", "", "", 1.0, "SCREENING 1", -7, "TREATMENT", "2012-11-11", -8], [960, "CDISCPILOT01", "QS", "01-704-1218", 1011, "MHITM11", "EVIDENCE OF ASSOCIATED ATHEROSCLEROSIS", "MHIS-NACC", "", "ABSENT", "", "0", 0, "", "", "", "", "", 1.0, "SCREENING 1", -7, "TREATMENT", "2012-11-11", -8], [961, "CDISCPILOT01", "QS", "01-704-1218", 1012, "MHITM12", "FOCAL NEUROLOGICAL SYMPTOMS", "MHIS-NACC", "", "ABSENT", "", "0", 0, "", "", "", "", "", 1.0, "SCREENING 1", -7, "TREATMENT", "2012-11-11", -8], [962, "CDISCPILOT01", "QS", "01-704-1218", 1013, "MHITM13", "FOCAL NEUROLOGICAL SIGNS", "MHIS-NACC", "", "ABSENT", "", "0", 0, "", "", "", "", "", 1.0, "SCREENING 1", -7, "TREATMENT", "2012-11-11", -8], [963, "CDISCPILOT01", "QS", "01-704-1233", 1001, "MHITM01", "ABRUPT ONSET", "MHIS-NACC", "", "ABSENT", "", "0", 0, "", "", "", "", "", 1.0, "SCREENING 1", -7, "TREATMENT", "2013-03-08", -13], [964, "CDISCPILOT01", "QS", "01-704-1233", 1002, "MHITM02", "STEPWISE DETERIORATION", "MHIS-NACC", "", "ABSENT", "", "0", 0, "", "", "", "", "", 1.0, "SCREENING 1", -7, "TREATMENT", "2013-03-08", -13], [965, "CDISCPILOT01", "QS", "01-704-1233", 1003, "MHITM03", "FLUCTUATING COURSE", "MHIS-NACC", "", "ABSENT", "", "0", 0, "", "", "", "", "", 1.0, "SCREENING 1", -7, "TREATMENT", "2013-03-08", -13], [966, "CDISCPILOT01", "QS", "01-704-1233", 1004, "MHITM04", "NOCTURNAL CONFUSION", "MHIS-NACC", "", "ABSENT", "", "0", 0, "", "", "", "", "", 1.0, "SCREENING 1", -7, "TREATMENT", "2013-03-08", -13], [967, "CDISCPILOT01", "QS", "01-704-1233", 1005, "MHITM05", "RELATIVE PRESERVATION OF PERSONALITY", "MHIS-NACC", "", "ABSENT", "", "0", 0, "", "", "", "", "", 1.0, "SCREENING 1", -7, "TREATMENT", "2013-03-08", -13], [968, "CDISCPILOT01", "QS", "01-704-1233", 1006, "MHITM06", "DEPRESSION", "MHIS-NACC", "", "ABSENT", "", "0", 0, "", "", "", "", "", 1.0, "SCREENING 1", -7, "TREATMENT", "2013-03-08", -13], [969, "CDISCPILOT01", "QS", "01-704-1233", 1007, "MHITM07", "SOMATIC COMPLAINTS", "MHIS-NACC", "", "ABSENT", "", "0", 0, "", "", "", "", "", 1.0, "SCREENING 1", -7, "TREATMENT", "2013-03-08", -13], [970, "CDISCPILOT01", "QS", "01-704-1233", 1008, "MHITM08", "EMOTIONAL INCONTINENCE", "MHIS-NACC", "", "ABSENT", "", "0", 0, "", "", "", "", "", 1.0, "SCREENING 1", -7, "TREATMENT", "2013-03-08", -13], [971, "CDISCPILOT01", "QS", "01-704-1233", 1009, "MHITM09", "HISTORY OF HYPERTENSION", "MHIS-NACC", "", "ABSENT", "", "0", 0, "", "", "", "", "", 1.0, "SCREENING 1", -7, "TREATMENT", "2013-03-08", -13], [972, "CDISCPILOT01", "QS", "01-704-1233", 1010, "MHITM10", "HISTORY OF STROKES", "MHIS-NACC", "", "ABSENT", "", "0", 0, "", "", "", "", "", 1.0, "SCREENING 1", -7, "TREATMENT", "2013-03-08", -13], [973, "CDISCPILOT01", "QS", "01-704-1233", 1011, "MHITM11", "EVIDENCE OF ASSOCIATED ATHEROSCLEROSIS", "MHIS-NACC", "", "ABSENT", "", "0", 0, "", "", "", "", "", 1.0, "SCREENING 1", -7, "TREATMENT", "2013-03-08", -13], [974, "CDISCPILOT01", "QS", "01-704-1233", 1012, "MHITM12", "FOCAL NEUROLOGICAL SYMPTOMS", "MHIS-NACC", "", "ABSENT", "", "0", 0, "", "", "", "", "", 1.0, "SCREENING 1", -7, "TREATMENT", "2013-03-08", -13], [975, "CDISCPILOT01", "QS", "01-704-1233", 1013, "MHITM13", "FOCAL NEUROLOGICAL SIGNS", "MHIS-NACC", "", "ABSENT", "", "0", 0, "", "", "", "", "", 1.0, "SCREENING 1", -7, "TREATMENT", "2013-03-08", -13], [976, "CDISCPILOT01", "QS", "01-704-1241", 1001, "MHITM01", "ABRUPT ONSET", "MHIS-NACC", "", "ABSENT", "", "0", 0, "", "", "", "", "", 1.0, "SCREENING 1", -7, "TREATMENT", "2013-08-14", -11], [977, "CDISCPILOT01", "QS", "01-704-1241", 1002, "MHITM02", "STEPWISE DETERIORATION", "MHIS-NACC", "", "ABSENT", "", "0", 0, "", "", "", "", "", 1.0, "SCREENING 1", -7, "TREATMENT", "2013-08-14", -11], [978, "CDISCPILOT01", "QS", "01-704-1241",