{"creationDateTime": "2023-08-04T11:25:59", "datasetJSONVersion": "1.0.0", "fileOID": "UpdatedCDISCPILOT.CDISC SDTM.3.2.QSMM", "clinicalData": {"studyOID": "UpdatedCDISCPILOT.CDISC SDTM.3.2", "metaDataVersionOID": "MDV.UpdatedCDISCPILOT.CDISC SDTM.3.2", "itemGroupData": {"QSMM": {"records": 1524, "name": "QSMM", "label": "Questionnaires", "items": [{"OID": "ITEMGROUPDATASEQ", "name": "ITEMGROUPDATASEQ", "label": "Record identifier", "type": "integer"}, {"OID": "IT.QSMM.STUDYID", "name": "STUDYID", "label": "Study Identifier", "type": "string", "length": 12, "keySequence": 1}, {"OID": "IT.QSMM.DOMAIN", "name": "DOMAIN", "label": "Domain Abbreviation", "type": "string", "length": 2}, {"OID": "IT.QSMM.USUBJID", "name": "USUBJID", "label": "Unique Subject Identifier", "type": "string", "length": 11, "keySequence": 2}, {"OID": "IT.QSMM.QSSEQ", "name": "QSSEQ", "label": "Sequence Number", "type": "integer", "length": 8}, {"OID": "IT.QSMM.QSTESTCD", "name": "QSTESTCD", "label": "Question Short Name", "type": "string", "length": 8, "keySequence": 3}, {"OID": "IT.QSMM.QSTEST", "name": "QSTEST", "label": "Question Name", "type": "string", "length": 40}, {"OID": "IT.QSMM.QSCAT", "name": "QSCAT", "label": "Category of Question", "type": "string", "length": 70}, {"OID": "IT.QSMM.QSSCAT", "name": "QSSCAT", "label": "Subcategory for Question", "type": "string", "length": 26}, {"OID": "IT.QSMM.QSORRES", "name": "QSORRES", "label": "Finding in Original Units", "type": "string", "length": 20}, {"OID": "IT.QSMM.QSORRESU", "name": "QSORRESU", "label": "Original Units", "type": "string", "length": 7}, {"OID": "IT.QSMM.QSSTRESC", "name": "QSSTRESC", "label": "Character Result/Finding in Std Format", "type": "string", "length": 4}, {"OID": "IT.QSMM.QSSTRESN", "name": "QSSTRESN", "label": "Numeric Finding in Standard Units", "type": "integer", "length": 8}, {"OID": "IT.QSMM.QSSTRESU", "name": "QSSTRESU", "label": "Standard Units", "type": "string", "length": 7}, {"OID": "IT.QSMM.QSSTAT", "name": "QSSTAT", "label": "Completion Status", "type": "string", "length": 8}, {"OID": "IT.QSMM.QSREASND", "name": "QSREASND", "label": "Reason Not Performed", "type": "string", "length": 17}, {"OID": "IT.QSMM.QSBLFL", "name": "QSBLFL", "label": "Baseline Flag", "type": "string", "length": 1}, {"OID": "IT.QSMM.QSDRVFL", "name": "QSDRVFL", "label": "Derived Flag", "type": "string", "length": 1}, {"OID": "IT.QSMM.VISITNUM", "name": "VISITNUM", "label": "Visit Number", "type": "float", "length": 8, "keySequence": 4}, {"OID": "IT.QSMM.VISIT", "name": "VISIT", "label": "Visit Name", "type": "string", "length": 19}, {"OID": "IT.QSMM.VISITDY", "name": "VISITDY", "label": "Planned Study Day of Visit", "type": "integer", "length": 8}, {"OID": "IT.QSMM.EPOCH", "name": "EPOCH", "label": "Epoch", "type": "string", "length": 9}, {"OID": "IT.QSMM.QSDTC", "name": "QSDTC", "label": "Date/Time of Finding", "type": "string", "length": 10}, {"OID": "IT.QSMM.QSDY", "name": "QSDY", "label": "Study Day of Finding", "type": "integer", "length": 8}], "itemData": [[1, "CDISCPILOT01", "QS", "01-701-1015", 2001, "MMITM01", "WHAT IS THE (YEAR) (SEASON) (DATE) ?", "MMSE", "ORIENTATION", "4", "", "4", 4, "", "", "", "", "", 1.0, "SCREENING 1", -7, "TREATMENT", "2013-12-26", -7], [2, "CDISCPILOT01", "QS", "01-701-1015", 2002, "MMITM02", "WHERE ARE WE: (STATE) (COUNTRY) (TOWN) ?", "MMSE", "ORIENTATION", "4", "", "4", 4, "", "", "", "", "", 1.0, "SCREENING 1", -7, "TREATMENT", "2013-12-26", -7], [3, "CDISCPILOT01", "QS", "01-701-1015", 2003, "MMITM03", "NAME 3 OBJECTS: 1 SECOND TO SAY EACH.", "MMSE", "REGISTRATION", "3", "", "3", 3, "", "", "", "", "", 1.0, "SCREENING 1", -7, "TREATMENT", "2013-12-26", -7], [4, "CDISCPILOT01", "QS", "01-701-1015", 2004, "MMITM04", "SERIAL 7'S. 1 POINT FOR EACH CORRECT.", "MMSE", "ATTENTION AND CALCULATI", "3", "", "3", 3, "", "", "", "", "", 1.0, "SCREENING 1", -7, "TREATMENT", "2013-12-26", -7], [5, "CDISCPILOT01", "QS", "01-701-1015", 2005, "MMITM05", "ASK FOR THE 3 OBJECTS REPEATED ABOVE.", "MMSE", "RECALL", "2", "", "2", 2, "", "", "", "", "", 1.0, "SCREENING 1", -7, "TREATMENT", "2013-12-26", -7], [6, "CDISCPILOT01", "QS", "01-701-1015", 2006, "MMITM06", "NAME A PENCIL, AND WATCH (2 POINTS)", "MMSE", "LANGUAGE", "7", "", "7", 7, "", "", "", "", "", 1.0, "SCREENING 1", -7, "TREATMENT", "2013-12-26", -7], [7, "CDISCPILOT01", "QS", "01-701-1023", 2001, "MMITM01", "WHAT IS THE (YEAR) (SEASON) (DATE) ?", "MMSE", "ORIENTATION", "4", "", "4", 4, "", "", "", "", "", 1.0, "SCREENING 1", -7, "TREATMENT", "2012-07-22", -14], [8, "CDISCPILOT01", "QS", "01-701-1023", 2002, "MMITM02", "WHERE ARE WE: (STATE) (COUNTRY) (TOWN) ?", "MMSE", "ORIENTATION", "4", "", "4", 4, "", "", "", "", "", 1.0, "SCREENING 1", -7, "TREATMENT", "2012-07-22", -14], [9, "CDISCPILOT01", "QS", "01-701-1023", 2003, "MMITM03", "NAME 3 OBJECTS: 1 SECOND TO SAY EACH.", "MMSE", "REGISTRATION", "3", "", "3", 3, "", "", "", "", "", 1.0, "SCREENING 1", -7, "TREATMENT", "2012-07-22", -14], [10, "CDISCPILOT01", "QS", "01-701-1023", 2004, "MMITM04", "SERIAL 7'S. 1 POINT FOR EACH CORRECT.", "MMSE", "ATTENTION AND CALCULATI", "4", "", "4", 4, "", "", "", "", "", 1.0, "SCREENING 1", -7, "TREATMENT", "2012-07-22", -14], [11, "CDISCPILOT01", "QS", "01-701-1023", 2005, "MMITM05", "ASK FOR THE 3 OBJECTS REPEATED ABOVE.", "MMSE", "RECALL", "2", "", "2", 2, "", "", "", "", "", 1.0, "SCREENING 1", -7, "TREATMENT", "2012-07-22", -14], [12, "CDISCPILOT01", "QS", "01-701-1023", 2006, "MMITM06", "NAME A PENCIL, AND WATCH (2 POINTS)", "MMSE", "LANGUAGE", "6", "", "6", 6, "", "", "", "", "", 1.0, "SCREENING 1", -7, "TREATMENT", "2012-07-22", -14], [13, "CDISCPILOT01", "QS", "01-701-1028", 2001, "MMITM01", "WHAT IS THE (YEAR) (SEASON) (DATE) ?", "MMSE", "ORIENTATION", "3", "", "3", 3, "", "", "", "", "", 1.0, "SCREENING 1", -7, "TREATMENT", "2013-07-11", -8], [14, "CDISCPILOT01", "QS", "01-701-1028", 2002, "MMITM02", "WHERE ARE WE: (STATE) (COUNTRY) (TOWN) ?", "MMSE", "ORIENTATION", "4", "", "4", 4, "", "", "", "", "", 1.0, "SCREENING 1", -7, "TREATMENT", "2013-07-11", -8], [15, "CDISCPILOT01", "QS", "01-701-1028", 2003, "MMITM03", "NAME 3 OBJECTS: 1 SECOND TO SAY EACH.", "MMSE", "REGISTRATION", "3", "", "3", 3, "", "", "", "", "", 1.0, "SCREENING 1", -7, "TREATMENT", "2013-07-11", -8], [16, "CDISCPILOT01", "QS", "01-701-1028", 2004, "MMITM04", "SERIAL 7'S. 1 POINT FOR EACH CORRECT.", "MMSE", "ATTENTION AND CALCULATI", "4", "", "4", 4, "", "", "", "", "", 1.0, "SCREENING 1", -7, "TREATMENT", "2013-07-11", -8], [17, "CDISCPILOT01", "QS", "01-701-1028", 2005, "MMITM05", "ASK FOR THE 3 OBJECTS REPEATED ABOVE.", "MMSE", "RECALL", "2", "", "2", 2, "", "", "", "", "", 1.0, "SCREENING 1", -7, "TREATMENT", "2013-07-11", -8], [18, "CDISCPILOT01", "QS", "01-701-1028", 2006, "MMITM06", "NAME A PENCIL, AND WATCH (2 POINTS)", "MMSE", "LANGUAGE", "7", "", "7", 7, "", "", "", "", "", 1.0, "SCREENING 1", -7, "TREATMENT", "2013-07-11", -8], [19, "CDISCPILOT01", "QS", "01-701-1033", 2001, "MMITM01", "WHAT IS THE (YEAR) (SEASON) (DATE) ?", "MMSE", "ORIENTATION", "4", "", "4", 4, "", "", "", "", "", 1.0, "SCREENING 1", -7, "TREATMENT", "2014-03-10", -8], [20, "CDISCPILOT01", "QS", "01-701-1033", 2002, "MMITM02", "WHERE ARE WE: (STATE) (COUNTRY) (TOWN) ?", "MMSE", "ORIENTATION", "4", "", "4", 4, "", "", "", "", "", 1.0, "SCREENING 1", -7, "TREATMENT", "2014-03-10", -8], [21, "CDISCPILOT01", "QS", "01-701-1033", 2003, "MMITM03", "NAME 3 OBJECTS: 1 SECOND TO SAY EACH.", "MMSE", "REGISTRATION", "3", "", "3", 3, "", "", "", "", "", 1.0, "SCREENING 1", -7, "TREATMENT", "2014-03-10", -8], [22, "CDISCPILOT01", "QS", "01-701-1033", 2004, "MMITM04", "SERIAL 7'S. 1 POINT FOR EACH CORRECT.", "MMSE", "ATTENTION AND CALCULATI", "4", "", "4", 4, "", "", "", "", "", 1.0, "SCREENING 1", -7, "TREATMENT", "2014-03-10", -8], [23, "CDISCPILOT01", "QS", "01-701-1033", 2005, "MMITM05", "ASK FOR THE 3 OBJECTS REPEATED ABOVE.", "MMSE", "RECALL", "1", "", "1", 1, "", "", "", "", "", 1.0, "SCREENING 1", -7, "TREATMENT", "2014-03-10", -8], [24, "CDISCPILOT01", "QS", "01-701-1033", 2006, "MMITM06", "NAME A PENCIL, AND WATCH (2 POINTS)", "MMSE", "LANGUAGE", "7", "", "7", 7, "", "", "", "", "", 1.0, "SCREENING 1", -7, "TREATMENT", "2014-03-10", -8], [25, "CDISCPILOT01", "QS", "01-701-1034", 2001, "MMITM01", "WHAT IS THE (YEAR) (SEASON) (DATE) ?", "MMSE", "ORIENTATION", "5", "", "5", 5, "", "", "", "", "", 1.0, "SCREENING 1", -7, "TREATMENT", "2014-06-24", -7], [26, "CDISCPILOT01", "QS", "01-701-1034", 2002, "MMITM02", "WHERE ARE WE: (STATE) (COUNTRY) (TOWN) ?", "MMSE", "ORIENTATION", "3", "", "3", 3, "", "", "", "", "", 1.0, "SCREENING 1", -7, "TREATMENT", "2014-06-24", -7], [27, "CDISCPILOT01", "QS", "01-701-1034", 2003, "MMITM03", "NAME 3 OBJECTS: 1 SECOND TO SAY EACH.", "MMSE", "REGISTRATION", "3", "", "3", 3, "", "", "", "", "", 1.0, "SCREENING 1", -7, "TREATMENT", "2014-06-24", -7], [28, "CDISCPILOT01", "QS", "01-701-1034", 2004, "MMITM04", "SERIAL 7'S. 1 POINT FOR EACH CORRECT.", "MMSE", "ATTENTION AND CALCULATI", "2", "", "2", 2, "", "", "", "", "", 1.0, "SCREENING 1", -7, "TREATMENT", "2014-06-24", -7], [29, "CDISCPILOT01", "QS", "01-701-1034", 2005, "MMITM05", "ASK FOR THE 3 OBJECTS REPEATED ABOVE.", "MMSE", "RECALL", "0", "", "0", 0, "", "", "", "", "", 1.0, "SCREENING 1", -7, "TREATMENT", "2014-06-24", -7], [30, "CDISCPILOT01", "QS", "01-701-1034", 2006, "MMITM06", "NAME A PENCIL, AND WATCH (2 POINTS)", "MMSE", "LANGUAGE", "8", "", "8", 8, "", "", "", "", "", 1.0, "SCREENING 1", -7, "TREATMENT", "2014-06-24", -7], [31, "CDISCPILOT01", "QS", "01-701-1047", 2001, "MMITM01", "WHAT IS THE (YEAR) (SEASON) (DATE) ?", "MMSE", "ORIENTATION", "5", "", "5", 5, "", "", "", "", "", 1.0, "SCREENING 1", -7, "TREATMENT", "2013-01-22", -21], [32, "CDISCPILOT01", "QS", "01-701-1047", 2002, "MMITM02", "WHERE ARE WE: (STATE) (COUNTRY) (TOWN) ?", "MMSE", "ORIENTATION", "2", "", "2", 2, "", "", "", "", "", 1.0, "SCREENING 1", -7, "TREATMENT", "2013-01-22", -21], [33, "CDISCPILOT01", "QS", "01-701-1047", 2003, "MMITM03", "NAME 3 OBJECTS: 1 SECOND TO SAY EACH.", "MMSE", "REGISTRATION", "3", "", "3", 3, "", "", "", "", "", 1.0, "SCREENING 1", -7, "TREATMENT", "2013-01-22", -21], [34, "CDISCPILOT01", "QS", "01-701-1047", 2004, "MMITM04", "SERIAL 7'S. 1 POINT FOR EACH CORRECT.", "MMSE", "ATTENTION AND CALCULATI", "4", "", "4", 4, "", "", "", "", "", 1.0, "SCREENING 1", -7, "TREATMENT", "2013-01-22", -21], [35, "CDISCPILOT01", "QS", "01-701-1047", 2005, "MMITM05", "ASK FOR THE 3 OBJECTS REPEATED ABOVE.", "MMSE", "RECALL", "1", "", "1", 1, "", "", "", "", "", 1.0, "SCREENING 1", -7, "TREATMENT", "2013-01-22", -21], [36, "CDISCPILOT01", "QS", "01-701-1047", 2006, "MMITM06", "NAME A PENCIL, AND WATCH (2 POINTS)", "MMSE", "LANGUAGE", "8", "", "8", 8, "", "", "", "", "", 1.0, "SCREENING 1", -7, "TREATMENT", "2013-01-22", -21], [37, "CDISCPILOT01", "QS", "01-701-1097", 2001, "MMITM01", "WHAT IS THE (YEAR) (SEASON) (DATE) ?", "MMSE", "ORIENTATION", "1", "", "1", 1, "", "", "", "", "", 1.0, "SCREENING 1", -7, "TREATMENT", "2013-12-23", -9], [38, "CDISCPILOT01", "QS", "01-701-1097", 2002, "MMITM02", "WHERE ARE WE: (STATE) (COUNTRY) (TOWN) ?", "MMSE", "ORIENTATION", "0", "", "0", 0, "", "", "", "", "", 1.0, "SCREENING 1", -7, "TREATMENT", "2013-12-23", -9], [39, "CDISCPILOT01", "QS", "01-701-1097", 2003, "MMITM03", "NAME 3 OBJECTS: 1 SECOND TO SAY EACH.", "MMSE", "REGISTRATION", "3", "", "3", 3, "", "", "", "", "", 1.0, "SCREENING 1", -7, "TREATMENT", "2013-12-23", -9], [40, "CDISCPILOT01", "QS", "01-701-1097", 2004, "MMITM04", "SERIAL 7'S. 1 POINT FOR EACH CORRECT.", "MMSE", "ATTENTION AND CALCULATI", "0", "", "0", 0, "", "", "", "", "", 1.0, "SCREENING 1", -7, "TREATMENT", "2013-12-23", -9], [41, "CDISCPILOT01", "QS", "01-701-1097", 2005, "MMITM05", "ASK FOR THE 3 OBJECTS REPEATED ABOVE.", "MMSE", "RECALL", "0", "", "0", 0, "", "", "", "", "", 1.0, "SCREENING 1", -7, "TREATMENT", "2013-12-23", -9], [42, "CDISCPILOT01", "QS", "01-701-1097", 2006, "MMITM06", "NAME A PENCIL, AND WATCH (2 POINTS)", "MMSE", "LANGUAGE", "6", "", "6", 6, "", "", "", "", "", 1.0, "SCREENING 1", -7, "TREATMENT", "2013-12-23", -9], [43, "CDISCPILOT01", "QS", "01-701-1111", 2001, "MMITM01", "WHAT IS THE (YEAR) (SEASON) (DATE) ?", "MMSE", "ORIENTATION", "4", "", "4", 4, "", "", "", "", "", 1.0, "SCREENING 1", -7, "TREATMENT", "2012-08-25", -13], [44, "CDISCPILOT01", "QS", "01-701-1111", 2002, "MMITM02", "WHERE ARE WE: (STATE) (COUNTRY) (TOWN) ?", "MMSE", "ORIENTATION", "5", "", "5", 5, "", "", "", "", "", 1.0, "SCREENING 1", -7, "TREATMENT", "2012-08-25", -13], [45, "CDISCPILOT01", "QS", "01-701-1111", 2003, "MMITM03", "NAME 3 OBJECTS: 1 SECOND TO SAY EACH.", "MMSE", "REGISTRATION", "3", "", "3", 3, "", "", "", "", "", 1.0, "SCREENING 1", -7, "TREATMENT", "2012-08-25", -13], [46, "CDISCPILOT01", "QS", "01-701-1111", 2004, "MMITM04", "SERIAL 7'S. 1 POINT FOR EACH CORRECT.", "MMSE", "ATTENTION AND CALCULATI", "4", "", "4", 4, "", "", "", "", "", 1.0, "SCREENING 1", -7, "TREATMENT", "2012-08-25", -13], [47, "CDISCPILOT01", "QS", "01-701-1111", 2005, "MMITM05", "ASK FOR THE 3 OBJECTS REPEATED ABOVE.", "MMSE", "RECALL", "0", "", "0", 0, "", "", "", "", "", 1.0, "SCREENING 1", -7, "TREATMENT", "2012-08-25", -13], [48, "CDISCPILOT01", "QS", "01-701-1111", 2006, "MMITM06", "NAME A PENCIL, AND WATCH (2 POINTS)", "MMSE", "LANGUAGE", "7", "", "7", 7, "", "", "", "", "", 1.0, "SCREENING 1", -7, "TREATMENT", "2012-08-25", -13], [49, "CDISCPILOT01", "QS", "01-701-1115", 2001, "MMITM01", "WHAT IS THE (YEAR) (SEASON) (DATE) ?", "MMSE", "ORIENTATION", "4", "", "4", 4, "", "", "", "", "", 1.0, "SCREENING 1", -7, "TREATMENT", "2012-11-23", -7], [50, "CDISCPILOT01", "QS", "01-701-1115", 2002, "MMITM02", "WHERE ARE WE: (STATE) (COUNTRY) (TOWN) ?", "MMSE", "ORIENTATION", "2", "", "2", 2, "", "", "", "", "", 1.0, "SCREENING 1", -7, "TREATMENT", "2012-11-23", -7], [51, "CDISCPILOT01", "QS", "01-701-1115", 2003, "MMITM03", "NAME 3 OBJECTS: 1 SECOND TO SAY EACH.", "MMSE", "REGISTRATION", "3", "", "3", 3, "", "", "", "", "", 1.0, "SCREENING 1", -7, "TREATMENT", "2012-11-23", -7], [52, "CDISCPILOT01", "QS", "01-701-1115", 2004, "MMITM04", "SERIAL 7'S. 1 POINT FOR EACH CORRECT.", "MMSE", "ATTENTION AND CALCULATI", "3", "", "3", 3, "", "", "", "", "", 1.0, "SCREENING 1", -7, "TREATMENT", "2012-11-23", -7], [53, "CDISCPILOT01", "QS", "01-701-1115", 2005, "MMITM05", "ASK FOR THE 3 OBJECTS REPEATED ABOVE.", "MMSE", "RECALL", "1", "", "1", 1, "", "", "", "", "", 1.0, "SCREENING 1", -7, "TREATMENT", "2012-11-23", -7], [54, "CDISCPILOT01", "QS", "01-701-1115", 2006, "MMITM06", "NAME A PENCIL, AND WATCH (2 POINTS)", "MMSE", "LANGUAGE", "7", "", "7", 7, "", "", "", "", "", 1.0, "SCREENING 1", -7, "TREATMENT", "2012-11-23", -7], [55, "CDISCPILOT01", "QS", "01-701-1118", 2001, "MMITM01", "WHAT IS THE (YEAR) (SEASON) (DATE) ?", "MMSE", "ORIENTATION", "3", "", "3", 3, "", "", "", "", "", 1.0, "SCREENING 1", -7, "TREATMENT", "2014-02-27", -13], [56, "CDISCPILOT01", "QS", "01-701-1118", 2002, "MMITM02", "WHERE ARE WE: (STATE) (COUNTRY) (TOWN) ?", "MMSE", "ORIENTATION", "4", "", "4", 4, "", "", "", "", "", 1.0, "SCREENING 1", -7, "TREATMENT", "2014-02-27", -13], [57, "CDISCPILOT01", "QS", "01-701-1118", 2003, "MMITM03", "NAME 3 OBJECTS: 1 SECOND TO SAY EACH.", "MMSE", "REGISTRATION", "3", "", "3", 3, "", "", "", "", "", 1.0, "SCREENING 1", -7, "TREATMENT", "2014-02-27", -13], [58, "CDISCPILOT01", "QS", "01-701-1118", 2004, "MMITM04", "SERIAL 7'S. 1 POINT FOR EACH CORRECT.", "MMSE", "ATTENTION AND CALCULATI", "2", "", "2", 2, "", "", "", "", "", 1.0, "SCREENING 1", -7, "TREATMENT", "2014-02-27", -13], [59, "CDISCPILOT01", "QS", "01-701-1118", 2005, "MMITM05", "ASK FOR THE 3 OBJECTS REPEATED ABOVE.", "MMSE", "RECALL", "1", "", "1", 1, "", "", "", "", "", 1.0, "SCREENING 1", -7, "TREATMENT", "2014-02-27", -13], [60, "CDISCPILOT01", "QS", "01-701-1118", 2006, "MMITM06", "NAME A PENCIL, AND WATCH (2 POINTS)", "MMSE", "LANGUAGE", "7", "", "7", 7, "", "", "", "", "", 1.0, "SCREENING 1", -7, "TREATMENT", "2014-02-27", -13], [61, "CDISCPILOT01", "QS", "01-701-1130", 2001, "MMITM01", "WHAT IS THE (YEAR) (SEASON) (DATE) ?", "MMSE", "ORIENTATION", "1", "", "1", 1, "", "", "", "", "", 1.0, "SCREENING 1", -7, "TREATMENT", "2014-02-09", -6], [62, "CDISCPILOT01", "QS", "01-701-1130", 2002, "MMITM02", "WHERE ARE WE: (STATE) (COUNTRY) (TOWN) ?", "MMSE", "ORIENTATION", "4", "", "4", 4, "", "", "", "", "", 1.0, "SCREENING 1", -7, "TREATMENT", "2014-02-09", -6], [63, "CDISCPILOT01", "QS", "01-701-1130", 2003, "MMITM03", "NAME 3 OBJECTS: 1 SECOND TO SAY EACH.", "MMSE", "REGISTRATION", "3", "", "3", 3, "", "", "", "", "", 1.0, "SCREENING 1", -7, "TREATMENT", "2014-02-09", -6], [64, "CDISCPILOT01", "QS", "01-701-1130", 2004, "MMITM04", "SERIAL 7'S. 1 POINT FOR EACH CORRECT.", "MMSE", "ATTENTION AND CALCULATI", "5", "", "5", 5, "", "", "", "", "", 1.0, "SCREENING 1", -7, "TREATMENT", "2014-02-09", -6], [65, "CDISCPILOT01", "QS", "01-701-1130", 2005, "MMITM05", "ASK FOR THE 3 OBJECTS REPEATED ABOVE.", "MMSE", "RECALL", "0", "", "0", 0, "", "", "", "", "", 1.0, "SCREENING 1", -7, "TREATMENT", "2014-02-09", -6], [66, "CDISCPILOT01", "QS", "01-701-1130", 2006, "MMITM06", "NAME A PENCIL, AND WATCH (2 POINTS)", "MMSE", "LANGUAGE", "6", "", "6", 6, "", "", "", "", "", 1.0, "SCREENING 1", -7, "TREATMENT", "2014-02-09", -6], [67, "CDISCPILOT01", "QS", "01-701-1133", 2001, "MMITM01", "WHAT IS THE (YEAR) (SEASON) (DATE) ?", "MMSE", "ORIENTATION", "1", "", "1", 1, "", "", "", "", "", 1.0, "SCREENING 1", -7, "TREATMENT", "2012-10-23", -5], [68, "CDISCPILOT01", "QS", "01-701-1133", 2002, "MMITM02", "WHERE ARE WE: (STATE) (COUNTRY) (TOWN) ?", "MMSE", "ORIENTATION", "5", "", "5", 5, "", "", "", "", "", 1.0, "SCREENING 1", -7, "TREATMENT", "2012-10-23", -5], [69, "CDISCPILOT01", "QS", "01-701-1133", 2003, "MMITM03", "NAME 3 OBJECTS: 1 SECOND TO SAY EACH.", "MMSE", "REGISTRATION", "3", "", "3", 3, "", "", "", "", "", 1.0, "SCREENING 1", -7, "TREATMENT", "2012-10-23", -5], [70, "CDISCPILOT01", "QS", "01-701-1133", 2004, "MMITM04", "SERIAL 7'S. 1 POINT FOR EACH CORRECT.", "MMSE", "ATTENTION AND CALCULATI", "5", "", "5", 5, "", "", "", "", "", 1.0, "SCREENING 1", -7, "TREATMENT", "2012-10-23", -5], [71, "CDISCPILOT01", "QS", "01-701-1133", 2005, "MMITM05", "ASK FOR THE 3 OBJECTS REPEATED ABOVE.", "MMSE", "RECALL", "0", "", "0", 0, "", "", "", "", "", 1.0, "SCREENING 1", -7, "TREATMENT", "2012-10-23", -5], [72, "CDISCPILOT01", "QS", "01-701-1133", 2006, "MMITM06", "NAME A PENCIL, AND WATCH (2 POINTS)", "MMSE", "LANGUAGE", "7", "", "7", 7, "", "", "", "", "", 1.0, "SCREENING 1", -7, "TREATMENT", "2012-10-23", -5], [73, "CDISCPILOT01", "QS", "01-701-1146", 2001, "MMITM01", "WHAT IS THE (YEAR) (SEASON) (DATE) ?", "MMSE", "ORIENTATION", "4", "", "4", 4, "", "", "", "", "", 1.0, "SCREENING 1", -7, "TREATMENT", "2013-05-07", -13], [74, "CDISCPILOT01", "QS", "01-701-1146", 2002, "MMITM02", "WHERE ARE WE: (STATE) (COUNTRY) (TOWN) ?", "MMSE", "ORIENTATION", "4", "", "4", 4, "", "", "", "", "", 1.0, "SCREENING 1", -7, "TREATMENT", "2013-05-07", -13], [75, "CDISCPILOT01", "QS", "01-701-1146", 2003, "MMITM03", "NAME 3 OBJECTS: 1 SECOND TO SAY EACH.", "MMSE", "REGISTRATION", "3", "", "3", 3, "", "", "", "", "", 1.0, "SCREENING 1", -7, "TREATMENT", "2013-05-07", -13], [76, "CDISCPILOT01", "QS", "01-701-1146", 2004, "MMITM04", "SERIAL 7'S. 1 POINT FOR EACH CORRECT.", "MMSE", "ATTENTION AND CALCULATI", "5", "", "5", 5, "", "", "", "", "", 1.0, "SCREENING 1", -7, "TREATMENT", "2013-05-07", -13], [77, "CDISCPILOT01", "QS", "01-701-1146", 2005, "MMITM05", "ASK FOR THE 3 OBJECTS REPEATED ABOVE.", "MMSE", "RECALL", "2", "", "2", 2, "", "", "", "", "", 1.0, "SCREENING 1", -7, "TREATMENT", "2013-05-07", -13], [78, "CDISCPILOT01", "QS", "01-701-1146", 2006, "MMITM06", "NAME A PENCIL, AND WATCH (2 POINTS)", "MMSE", "LANGUAGE", "4", "", "4", 4, "", "", "", "", "", 1.0, "SCREENING 1", -7, "TREATMENT", "2013-05-07", -13], [79, "CDISCPILOT01", "QS", "01-701-1148", 2001, "MMITM01", "WHAT IS THE (YEAR) (SEASON) (DATE) ?", "MMSE", "ORIENTATION", "3", "", "3", 3, "", "", "", "", "", 1.0, "SCREENING 1", -7, "TREATMENT", "2013-08-14", -9], [80, "CDISCPILOT01", "QS", "01-701-1148", 2002, "MMITM02", "WHERE ARE WE: (STATE) (COUNTRY) (TOWN) ?", "MMSE", "ORIENTATION", "3", "", "3", 3, "", "", "", "", "", 1.0, "SCREENING 1", -7, "TREATMENT", "2013-08-14", -9], [81, "CDISCPILOT01", "QS", "01-701-1148", 2003, "MMITM03", "NAME 3 OBJECTS: 1 SECOND TO SAY EACH.", "MMSE", "REGISTRATION", "3", "", "3", 3, "", "", "", "", "", 1.0, "SCREENING 1", -7, "TREATMENT", "2013-08-14", -9], [82, "CDISCPILOT01", "QS", "01-701-1148", 2004, "MMITM04", "SERIAL 7'S. 1 POINT FOR EACH CORRECT.", "MMSE", "ATTENTION AND CALCULATI", "3", "", "3", 3, "", "", "", "", "", 1.0, "SCREENING 1", -7, "TREATMENT", "2013-08-14", -9], [83, "CDISCPILOT01", "QS", "01-701-1148", 2005, "MMITM05", "ASK FOR THE 3 OBJECTS REPEATED ABOVE.", "MMSE", "RECALL", "0", "", "0", 0, "", "", "", "", "", 1.0, "SCREENING 1", -7, "TREATMENT", "2013-08-14", -9], [84, "CDISCPILOT01", "QS", "01-701-1148", 2006, "MMITM06", "NAME A PENCIL, AND WATCH (2 POINTS)", "MMSE", "LANGUAGE", "9", "", "9", 9, "", "", "", "", "", 1.0, "SCREENING 1", -7, "TREATMENT", "2013-08-14", -9], [85, "CDISCPILOT01", "QS", "01-701-1153", 2001, "MMITM01", "WHAT IS THE (YEAR) (SEASON) (DATE) ?", "MMSE", "ORIENTATION", "0", "", "0", 0, "", "", "", "", "", 1.0, "SCREENING 1", -7, "TREATMENT", "2013-09-06", -17], [86, "CDISCPILOT01", "QS", "01-701-1153", 2002, "MMITM02", "WHERE ARE WE: (STATE) (COUNTRY) (TOWN) ?", "MMSE", "ORIENTATION", "0", "", "0", 0, "", "", "", "", "", 1.0, "SCREENING 1", -7, "TREATMENT", "2013-09-06", -17], [87, "CDISCPILOT01", "QS", "01-701-1153", 2003, "MMITM03", "NAME 3 OBJECTS: 1 SECOND TO SAY EACH.", "MMSE", "REGISTRATION", "3", "", "3", 3, "", "", "", "", "", 1.0, "SCREENING 1", -7, "TREATMENT", "2013-09-06", -17], [88, "CDISCPILOT01", "QS", "01-701-1153", 2004, "MMITM04", "SERIAL 7'S. 1 POINT FOR EACH CORRECT.", "MMSE", "ATTENTION AND CALCULATI", "2", "", "2", 2, "", "", "", "", "", 1.0, "SCREENING 1", -7, "TREATMENT", "2013-09-06", -17], [89, "CDISCPILOT01", "QS", "01-701-1153", 2005, "MMITM05", "ASK FOR THE 3 OBJECTS REPEATED ABOVE.", "MMSE", "RECALL", "0", "", "0", 0, "", "", "", "", "", 1.0, "SCREENING 1", -7, "TREATMENT", "2013-09-06", -17], [90, "CDISCPILOT01", "QS", "01-701-1153", 2006, "MMITM06", "NAME A PENCIL, AND WATCH (2 POINTS)", "MMSE", "LANGUAGE", "5", "", "5", 5, "", "", "", "", "", 1.0, "SCREENING 1", -7, "TREATMENT", "2013-09-06", -17], [91, "CDISCPILOT01", "QS", "01-701-1180", 2001, "MMITM01", "WHAT IS THE (YEAR) (SEASON) (DATE) ?", "MMSE", "ORIENTATION", "3", "", "3", 3, "", "", "", "", "", 1.0, "SCREENING 1", -7, "TREATMENT", "2013-01-28", -15], [92, "CDISCPILOT01", "QS", "01-701-1180", 2002, "MMITM02", "WHERE ARE WE: (STATE) (COUNTRY) (TOWN) ?", "MMSE", "ORIENTATION", "3", "", "3", 3, "", "", "", "", "", 1.0, "SCREENING 1", -7, "TREATMENT", "2013-01-28", -15], [93, "CDISCPILOT01", "QS", "01-701-1180", 2003, "MMITM03", "NAME 3 OBJECTS: 1 SECOND TO SAY EACH.", "MMSE", "REGISTRATION", "3", "", "3", 3, "", "", "", "", "", 1.0, "SCREENING 1", -7, "TREATMENT", "2013-01-28", -15], [94, "CDISCPILOT01", "QS", "01-701-1180", 2004, "MMITM04", "SERIAL 7'S. 1 POINT FOR EACH CORRECT.", "MMSE", "ATTENTION AND CALCULATI", "3", "", "3", 3, "", "", "", "", "", 1.0, "SCREENING 1", -7, "TREATMENT", "2013-01-28", -15], [95, "CDISCPILOT01", "QS", "01-701-1180", 2005, "MMITM05", "ASK FOR THE 3 OBJECTS REPEATED ABOVE.", "MMSE", "RECALL", "0", "", "0", 0, "", "", "", "", "", 1.0, "SCREENING 1", -7, "TREATMENT", "2013-01-28", -15], [96, "CDISCPILOT01", "QS", "01-701-1180", 2006, "MMITM06", "NAME A PENCIL, AND WATCH (2 POINTS)", "MMSE", "LANGUAGE", "7", "", "7", 7, "", "", "", "", "", 1.0, "SCREENING 1", -7, "TREATMENT", "2013-01-28", -15], [97, "CDISCPILOT01", "QS", "01-701-1181", 2001, "MMITM01", "WHAT IS THE (YEAR) (SEASON) (DATE) ?", "MMSE", "ORIENTATION", "0", "", "0", 0, "", "", "", "", "", 1.0, "SCREENING 1", -7, "TREATMENT", "2013-11-26", -9], [98, "CDISCPILOT01", "QS", "01-701-1181", 2002, "MMITM02", "WHERE ARE WE: (STATE) (COUNTRY) (TOWN) ?", "MMSE", "ORIENTATION", "1", "", "1", 1, "", "", "", "", "", 1.0, "SCREENING 1", -7, "TREATMENT", "2013-11-26", -9], [99, "CDISCPILOT01", "QS", "01-701-1181", 2003, "MMITM03", "NAME 3 OBJECTS: 1 SECOND TO SAY EACH.", "MMSE", "REGISTRATION", "3", "", "3", 3, "", "", "", "", "", 1.0, "SCREENING 1", -7, "TREATMENT", "2013-11-26", -9], [100, "CDISCPILOT01", "QS", "01-701-1181", 2004, "MMITM04", "SERIAL 7'S. 1 POINT FOR EACH CORRECT.", "MMSE", "ATTENTION AND CALCULATI", "0", "", "0", 0, "", "", "", "", "", 1.0, "SCREENING 1", -7, "TREATMENT", "2013-11-26", -9], [101, "CDISCPILOT01", "QS", "01-701-1181", 2005, "MMITM05", "ASK FOR THE 3 OBJECTS REPEATED ABOVE.", "MMSE", "RECALL", "0", "", "0", 0, "", "", "", "", "", 1.0, "SCREENING 1", -7, "TREATMENT", "2013-11-26", -9], [102, "CDISCPILOT01", "QS", "01-701-1181", 2006, "MMITM06", "NAME A PENCIL, AND WATCH (2 POINTS)", "MMSE", "LANGUAGE", "6", "", "6", 6, "", "", "", "", "", 1.0, "SCREENING 1", -7, "TREATMENT", "2013-11-26", -9], [103, "CDISCPILOT01", "QS", "01-701-1188", 2001, "MMITM01", "WHAT IS THE (YEAR) (SEASON) (DATE) ?", "MMSE", "ORIENTATION", "5", "", "5", 5, "", "", "", "", "", 1.0, "SCREENING 1", -7, "TREATMENT", "2013-02-03", -12], [104, "CDISCPILOT01", "QS", "01-701-1188", 2002, "MMITM02", "WHERE ARE WE: (STATE) (COUNTRY) (TOWN) ?", "MMSE", "ORIENTATION", "4", "", "4", 4, "", "", "", "", "", 1.0, "SCREENING 1", -7, "TREATMENT", "2013-02-03", -12], [105, "CDISCPILOT01", "QS", "01-701-1188", 2003, "MMITM03", "NAME 3 OBJECTS: 1 SECOND TO SAY EACH.", "MMSE", "REGISTRATION", "3", "", "3", 3, "", "", "", "", "", 1.0, "SCREENING 1", -7, "TREATMENT", "2013-02-03", -12], [106, "CDISCPILOT01", "QS", "01-701-1188", 2004, "MMITM04", "SERIAL 7'S. 1 POINT FOR EACH CORRECT.", "MMSE", "ATTENTION AND CALCULATI", "5", "", "5", 5, "", "", "", "", "", 1.0, "SCREENING 1", -7, "TREATMENT", "2013-02-03", -12], [107, "CDISCPILOT01", "QS", "01-701-1188", 2005, "MMITM05", "ASK FOR THE 3 OBJECTS REPEATED ABOVE.", "MMSE", "RECALL", "1", "", "1", 1, "", "", "", "", "", 1.0, "SCREENING 1", -7, "TREATMENT", "2013-02-03", -12], [108, "CDISCPILOT01", "QS", "01-701-1188", 2006, "MMITM06", "NAME A PENCIL, AND WATCH (2 POINTS)", "MMSE", "LANGUAGE", "5", "", "5", 5, "", "", "", "", "", 1.0, "SCREENING 1", -7, "TREATMENT", "2013-02-03", -12], [109, "CDISCPILOT01", "QS", "01-701-1192", 2001, "MMITM01", "WHAT IS THE (YEAR) (SEASON) (DATE) ?", "MMSE", "ORIENTATION", "2", "", "2", 2, "", "", "", "", "", 1.0, "SCREENING 1", -7, "TREATMENT", "2012-07-08", -14], [110, "CDISCPILOT01", "QS", "01-701-1192", 2002, "MMITM02", "WHERE ARE WE: (STATE) (COUNTRY) (TOWN) ?", "MMSE", "ORIENTATION", "4", "", "4", 4, "", "", "", "", "", 1.0, "SCREENING 1", -7, "TREATMENT", "2012-07-08", -14], [111, "CDISCPILOT01", "QS", "01-701-1192", 2003, "MMITM03", "NAME 3 OBJECTS: 1 SECOND TO SAY EACH.", "MMSE", "REGISTRATION", "3", "", "3", 3, "", "", "", "", "", 1.0, "SCREENING 1", -7, "TREATMENT", "2012-07-08", -14], [112, "CDISCPILOT01", "QS", "01-701-1192", 2004, "MMITM04", "SERIAL 7'S. 1 POINT FOR EACH CORRECT.", "MMSE", "ATTENTION AND CALCULATI", "5", "", "5", 5, "", "", "", "", "", 1.0, "SCREENING 1", -7, "TREATMENT", "2012-07-08", -14], [113, "CDISCPILOT01", "QS", "01-701-1192", 2005, "MMITM05", "ASK FOR THE 3 OBJECTS REPEATED ABOVE.", "MMSE", "RECALL", "1", "", "1", 1, "", "", "", "", "", 1.0, "SCREENING 1", -7, "TREATMENT", "2012-07-08", -14], [114, "CDISCPILOT01", "QS", "01-701-1192", 2006, "MMITM06", "NAME A PENCIL, AND WATCH (2 POINTS)", "MMSE", "LANGUAGE", "8", "", "8", 8, "", "", "", "", "", 1.0, "SCREENING 1", -7, "TREATMENT", "2012-07-08", -14], [115, "CDISCPILOT01", "QS", "01-701-1203", 2001, "MMITM01", "WHAT IS THE (YEAR) (SEASON) (DATE) ?", "MMSE", "ORIENTATION", "1", "", "1", 1, "", "", "", "", "", 1.0, "SCREENING 1", -7, "TREATMENT", "2013-01-25", -8], [116, "CDISCPILOT01", "QS", "01-701-1203", 2002, "MMITM02", "WHERE ARE WE: (STATE) (COUNTRY) (TOWN) ?", "MMSE", "ORIENTATION", "3", "", "3", 3, "", "", "", "", "", 1.0, "SCREENING 1", -7, "TREATMENT", "2013-01-25", -8], [117, "CDISCPILOT01", "QS", "01-701-1203", 2003, "MMITM03", "NAME 3 OBJECTS: 1 SECOND TO SAY EACH.", "MMSE", "REGISTRATION", "3", "", "3", 3, "", "", "", "", "", 1.0, "SCREENING 1", -7, "TREATMENT", "2013-01-25", -8], [118, "CDISCPILOT01", "QS", "01-701-1203", 2004, "MMITM04", "SERIAL 7'S. 1 POINT FOR EACH CORRECT.", "MMSE", "ATTENTION AND CALCULATI", "5", "", "5", 5, "", "", "", "", "", 1.0, "SCREENING 1", -7, "TREATMENT", "2013-01-25", -8], [119, "CDISCPILOT01", "QS", "01-701-1203", 2005, "MMITM05", "ASK FOR THE 3 OBJECTS REPEATED ABOVE.", "MMSE", "RECALL", "0", "", "0", 0, "", "", "", "", "", 1.0, "SCREENING 1", -7, "TREATMENT", "2013-01-25", -8], [120, "CDISCPILOT01", "QS", "01-701-1203", 2006, "MMITM06", "NAME A PENCIL, AND WATCH (2 POINTS)", "MMSE", "LANGUAGE", "9", "", "9", 9, "", "", "", "", "", 1.0, "SCREENING 1", -7, "TREATMENT", "2013-01-25", -8], [121, "CDISCPILOT01", "QS", "01-701-1211", 2001, "MMITM01", "WHAT IS THE (YEAR) (SEASON) (DATE) ?", "MMSE", "ORIENTATION", "0", "", "0", 0, "", "", "", "", "", 1.0, "SCREENING 1", -7, "TREATMENT", "2012-10-30", -16], [122, "CDISCPILOT01", "QS", "01-701-1211", 2002, "MMITM02", "WHERE ARE WE: (STATE) (COUNTRY) (TOWN) ?", "MMSE", "ORIENTATION", "3", "", "3", 3, "", "", "", "", "", 1.0, "SCREENING 1", -7, "TREATMENT", "2012-10-30", -16], [123, "CDISCPILOT01", "QS", "01-701-1211", 2003, "MMITM03", "NAME 3 OBJECTS: 1 SECOND TO SAY EACH.", "MMSE", "REGISTRATION", "3", "", "3", 3, "", "", "", "", "", 1.0, "SCREENING 1", -7, "TREATMENT", "2012-10-30", -16], [124, "CDISCPILOT01", "QS", "01-701-1211", 2004, "MMITM04", "SERIAL 7'S. 1 POINT FOR EACH CORRECT.", "MMSE", "ATTENTION AND CALCULATI", "0", "", "0", 0, "", "", "", "", "", 1.0, "SCREENING 1", -7, "TREATMENT", "2012-10-30", -16], [125, "CDISCPILOT01", "QS", "01-701-1211", 2005, "MMITM05", "ASK FOR THE 3 OBJECTS REPEATED ABOVE.", "MMSE", "RECALL", "0", "", "0", 0, "", "", "", "", "", 1.0, "SCREENING 1", -7, "TREATMENT", "2012-10-30", -16], [126, "CDISCPILOT01", "QS", "01-701-1211", 2006, "MMITM06", "NAME A PENCIL, AND WATCH (2 POINTS)", "MMSE", "LANGUAGE", "6", "", "6", 6, "", "", "", "", "", 1.0, "SCREENING 1", -7, "TREATMENT", "2012-10-30", -16], [127, "CDISCPILOT01", "QS", "01-701-1234", 2001, "MMITM01", "WHAT IS THE (YEAR) (SEASON) (DATE) ?", "MMSE", "ORIENTATION", "3", "", "3", 3, "", "", "", "", "", 1.0, "SCREENING 1", -7, "TREATMENT", "2013-03-20", -10], [128, "CDISCPILOT01", "QS", "01-701-1234", 2002, "MMITM02", "WHERE ARE WE: (STATE) (COUNTRY) (TOWN) ?", "MMSE", "ORIENTATION", "3", "", "3", 3, "", "", "", "", "", 1.0, "SCREENING 1", -7, "TREATMENT", "2013-03-20", -10], [129, "CDISCPILOT01", "QS", "01-701-1234", 2003, "MMITM03", "NAME 3 OBJECTS: 1 SECOND TO SAY EACH.", "MMSE", "REGISTRATION", "3", "", "3", 3, "", "", "", "", "", 1.0, "SCREENING 1", -7, "TREATMENT", "2013-03-20", -10], [130, "CDISCPILOT01", "QS", "01-701-1234", 2004, "MMITM04", "SERIAL 7'S. 1 POINT FOR EACH CORRECT.", "MMSE", "ATTENTION AND CALCULATI", "3", "", "3", 3, "", "", "", "", "", 1.0, "SCREENING 1", -7, "TREATMENT", "2013-03-20", -10], [131, "CDISCPILOT01", "QS", "01-701-1234", 2005, "MMITM05", "ASK FOR THE 3 OBJECTS REPEATED ABOVE.", "MMSE", "RECALL", "1", "", "1", 1, "", "", "", "", "", 1.0, "SCREENING 1", -7, "TREATMENT", "2013-03-20", -10], [132, "CDISCPILOT01", "QS", "01-701-1234", 2006, "MMITM06", "NAME A PENCIL, AND WATCH (2 POINTS)", "MMSE", "LANGUAGE", "7", "", "7", 7, "", "", "", "", "", 1.0, "SCREENING 1", -7, "TREATMENT", "2013-03-20", -10], [133, "CDISCPILOT01", "QS", "01-701-1239", 2001, "MMITM01", "WHAT IS THE (YEAR) (SEASON) (DATE) ?", "MMSE", "ORIENTATION", "4", "", "4", 4, "", "", "", "", "", 1.0, "SCREENING 1", -7, "TREATMENT", "2013-12-28", -14], [134, "CDISCPILOT01", "QS", "01-701-1239", 2002, "MMITM02", "WHERE ARE WE: (STATE) (COUNTRY) (TOWN) ?", "MMSE", "ORIENTATION", "4", "", "4", 4, "", "", "", "", "", 1.0, "SCREENING 1", -7, "TREATMENT", "2013-12-28", -14], [135, "CDISCPILOT01", "QS", "01-701-1239", 2003, "MMITM03", "NAME 3 OBJECTS: 1 SECOND TO SAY EACH.", "MMSE", "REGISTRATION", "3", "", "3", 3, "", "", "", "", "", 1.0, "SCREENING 1", -7, "TREATMENT", "2013-12-28", -14], [136, "CDISCPILOT01", "QS", "01-701-1239", 2004, "MMITM04", "SERIAL 7'S. 1 POINT FOR EACH CORRECT.", "MMSE", "ATTENTION AND CALCULATI", "3", "", "3", 3, "", "", "", "", "", 1.0, "SCREENING 1", -7, "TREATMENT", "2013-12-28", -14], [137, "CDISCPILOT01", "QS", "01-701-1239", 2005, "MMITM05", "ASK FOR THE 3 OBJECTS REPEATED ABOVE.", "MMSE", "RECALL", "2", "", "2", 2, "", "", "", "", "", 1.0, "SCREENING 1", -7, "TREATMENT", "2013-12-28", -14], [138, "CDISCPILOT01", "QS", "01-701-1239", 2006, "MMITM06", "NAME A PENCIL, AND WATCH (2 POINTS)", "MMSE", "LANGUAGE", "7", "", "7", 7, "", "", "", "", "", 1.0, "SCREENING 1", -7, "TREATMENT", "2013-12-28", -14], [139, "CDISCPILOT01", "QS", "01-701-1275", 2001, "MMITM01", "WHAT IS THE (YEAR) (SEASON) (DATE) ?", "MMSE", "ORIENTATION", "5", "", "5", 5, "", "", "", "", "", 1.0, "SCREENING 1", -7, "TREATMENT", "2014-01-25", -13], [140, "CDISCPILOT01", "QS", "01-701-1275", 2002, "MMITM02", "WHERE ARE WE: (STATE) (COUNTRY) (TOWN) ?", "MMSE", "ORIENTATION", "5", "", "5", 5, "", "", "", "", "", 1.0, "SCREENING 1", -7, "TREATMENT", "2014-01-25", -13], [141, "CDISCPILOT01", "QS", "01-701-1275", 2003, "MMITM03", "NAME 3 OBJECTS: 1 SECOND TO SAY EACH.", "MMSE", "REGISTRATION", "3", "", "3", 3, "", "", "", "", "", 1.0, "SCREENING 1", -7, "TREATMENT", "2014-01-25", -13], [142, "CDISCPILOT01", "QS", "01-701-1275", 2004, "MMITM04", "SERIAL 7'S. 1 POINT FOR EACH CORRECT.", "MMSE", "ATTENTION AND CALCULATI", "2", "", "2", 2, "", "", "", "", "", 1.0, "SCREENING 1", -7, "TREATMENT", "2014-01-25", -13], [143, "CDISCPILOT01", "QS", "01-701-1275", 2005, "MMITM05", "ASK FOR THE 3 OBJECTS REPEATED ABOVE.", "MMSE", "RECALL", "1", "", "1", 1, "", "", "", "", "", 1.0, "SCREENING 1", -7, "TREATMENT", "2014-01-25", -13], [144, "CDISCPILOT01", "QS", "01-701-1275", 2006, "MMITM06", "NAME A PENCIL, AND WATCH (2 POINTS)", "MMSE", "LANGUAGE", "6", "", "6", 6, "", "", "", "", "", 1.0, "SCREENING 1", -7, "TREATMENT", "2014-01-25", -13], [145, "CDISCPILOT01", "QS", "01-701-1287", 2001, "MMITM01", "WHAT IS THE (YEAR) (SEASON) (DATE) ?", "MMSE", "ORIENTATION", "5", "", "5", 5, "", "", "", "", "", 1.0, "SCREENING 1", -7, "TREATMENT", "2014-01-17", -8], [146, "CDISCPILOT01", "QS", "01-701-1287", 2002, "MMITM02", "WHERE ARE WE: (STATE) (COUNTRY) (TOWN) ?", "MMSE", "ORIENTATION", "5", "", "5", 5, "", "", "", "", "", 1.0, "SCREENING 1", -7, "TREATMENT", "2014-01-17", -8], [147, "CDISCPILOT01", "QS", "01-701-1287", 2003, "MMITM03", "NAME 3 OBJECTS: 1 SECOND TO SAY EACH.", "MMSE", "REGISTRATION", "3", "", "3", 3, "", "", "", "", "", 1.0, "SCREENING 1", -7, "TREATMENT", "2014-01-17", -8], [148, "CDISCPILOT01", "QS", "01-701-1287", 2004, "MMITM04", "SERIAL 7'S. 1 POINT FOR EACH CORRECT.", "MMSE", "ATTENTION AND CALCULATI", "2", "", "2", 2, "", "", "", "", "", 1.0, "SCREENING 1", -7, "TREATMENT", "2014-01-17", -8], [149, "CDISCPILOT01", "QS", "01-701-1287", 2005, "MMITM05", "ASK FOR THE 3 OBJECTS REPEATED ABOVE.", "MMSE", "RECALL", "0", "", "0", 0, "", "", "", "", "", 1.0, "SCREENING 1", -7, "TREATMENT", "2014-01-17", -8], [150, "CDISCPILOT01", "QS", "01-701-1287", 2006, "MMITM06", "NAME A PENCIL, AND WATCH (2 POINTS)", "MMSE", "LANGUAGE", "7", "", "7", 7, "", "", "", "", "", 1.0, "SCREENING 1", -7, "TREATMENT", "2014-01-17", -8], [151, "CDISCPILOT01", "QS", "01-701-1294", 2001, "MMITM01", "WHAT IS THE (YEAR) (SEASON) (DATE) ?", "MMSE", "ORIENTATION", "5", "", "5", 5, "", "", "", "", "", 1.0, "SCREENING 1", -7, "TREATMENT", "2013-03-17", -7], [152, "CDISCPILOT01", "QS", "01-701-1294", 2002, "MMITM02", "WHERE ARE WE: (STATE) (COUNTRY) (TOWN) ?", "MMSE", "ORIENTATION", "3", "", "3", 3, "", "", "", "", "", 1.0, "SCREENING 1", -7, "TREATMENT", "2013-03-17", -7], [153, "CDISCPILOT01", "QS", "01-701-1294", 2003, "MMITM03", "NAME 3 OBJECTS: 1 SECOND TO SAY EACH.", "MMSE", "REGISTRATION", "3", "", "3", 3, "", "", "", "", "", 1.0, "SCREENING 1", -7, "TREATMENT", "2013-03-17", -7], [154, "CDISCPILOT01", "QS", "01-701-1294", 2004, "MMITM04", "SERIAL 7'S. 1 POINT FOR EACH CORRECT.", "MMSE", "ATTENTION AND CALCULATI", "2", "", "2", 2, "", "", "", "", "", 1.0, "SCREENING 1", -7, "TREATMENT", "2013-03-17", -7], [155, "CDISCPILOT01", "QS", "01-701-1294", 2005, "MMITM05", "ASK FOR THE 3 OBJECTS REPEATED ABOVE.", "MMSE", "RECALL", "1", "", "1", 1, "", "", "", "", "", 1.0, "SCREENING 1", -7, "TREATMENT", "2013-03-17", -7], [156, "CDISCPILOT01", "QS", "01-701-1294", 2006, "MMITM06", "NAME A PENCIL, AND WATCH (2 POINTS)", "MMSE", "LANGUAGE", "9", "", "9", 9, "", "", "", "", "", 1.0, "SCREENING 1", -7, "TREATMENT", "2013-03-17", -7], [157, "CDISCPILOT01", "QS", "01-701-1302", 2001, "MMITM01", "WHAT IS THE (YEAR) (SEASON) (DATE) ?", "MMSE", "ORIENTATION", "4", "", "4", 4, "", "", "", "", "", 1.0, "SCREENING 1", -7, "TREATMENT", "2013-08-20", -9], [158, "CDISCPILOT01", "QS", "01-701-1302", 2002, "MMITM02", "WHERE ARE WE: (STATE) (COUNTRY) (TOWN) ?", "MMSE", "ORIENTATION", "3", "", "3", 3, "", "", "", "", "", 1.0, "SCREENING 1", -7, "TREATMENT", "2013-08-20", -9], [159, "CDISCPILOT01", "QS", "01-701-1302", 2003, "MMITM03", "NAME 3 OBJECTS: 1 SECOND TO SAY EACH.", "MMSE", "REGISTRATION", "3", "", "3", 3, "", "", "", "", "", 1.0, "SCREENING 1", -7, "TREATMENT", "2013-08-20", -9], [160, "CDISCPILOT01", "QS", "01-701-1302", 2004, "MMITM04", "SERIAL 7'S. 1 POINT FOR EACH CORRECT.", "MMSE", "ATTENTION AND CALCULATI", "4", "", "4", 4, "", "", "", "", "", 1.0, "SCREENING 1", -7, "TREATMENT", "2013-08-20", -9], [161, "CDISCPILOT01", "QS", "01-701-1302", 2005, "MMITM05", "ASK FOR THE 3 OBJECTS REPEATED ABOVE.", "MMSE", "RECALL", "1", "", "1", 1, "", "", "", "", "", 1.0, "SCREENING 1", -7, "TREATMENT", "2013-08-20", -9], [162, "CDISCPILOT01", "QS", "01-701-1302", 2006, "MMITM06", "NAME A PENCIL, AND WATCH (2 POINTS)", "MMSE", "LANGUAGE", "8", "", "8", 8, "", "", "", "", "", 1.0, "SCREENING 1", -7, "TREATMENT", "2013-08-20", -9], [163, "CDISCPILOT01", "QS", "01-701-1317", 2001, "MMITM01", "WHAT IS THE (YEAR) (SEASON) (DATE) ?", "MMSE", "ORIENTATION", "4", "", "4", 4, "", "", "", "", "", 1.0, "SCREENING 1", -7, "TREATMENT", "2014-05-10", -12], [164, "CDISCPILOT01", "QS", "01-701-1317", 2002, "MMITM02", "WHERE ARE WE: (STATE) (COUNTRY) (TOWN) ?", "MMSE", "ORIENTATION", "3", "", "3", 3, "", "", "", "", "", 1.0, "SCREENING 1", -7, "TREATMENT", "2014-05-10", -12], [165, "CDISCPILOT01", "QS", "01-701-1317", 2003, "MMITM03", "NAME 3 OBJECTS: 1 SECOND TO SAY EACH.", "MMSE", "REGISTRATION", "3", "", "3", 3, "", "", "", "", "", 1.0, "SCREENING 1", -7, "TREATMENT", "2014-05-10", -12], [166, "CDISCPILOT01", "QS", "01-701-1317", 2004, "MMITM04", "SERIAL 7'S. 1 POINT FOR EACH CORRECT.", "MMSE", "ATTENTION AND CALCULATI", "2", "", "2", 2, "", "", "", "", "", 1.0, "SCREENING 1", -7, "TREATMENT", "2014-05-10", -12], [167, "CDISCPILOT01", "QS", "01-701-1317", 2005, "MMITM05", "ASK FOR THE 3 OBJECTS REPEATED ABOVE.", "MMSE", "RECALL", "0", "", "0", 0, "", "", "", "", "", 1.0, "SCREENING 1", -7, "TREATMENT", "2014-05-10", -12], [168, "CDISCPILOT01", "QS", "01-701-1317", 2006, "MMITM06", "NAME A PENCIL, AND WATCH (2 POINTS)", "MMSE", "LANGUAGE", "8", "", "8", 8, "", "", "", "", "", 1.0, "SCREENING 1", -7, "TREATMENT", "2014-05-10", -12], [169, "CDISCPILOT01", "QS", "01-701-1324", 2001, "MMITM01", "WHAT IS THE (YEAR) (SEASON) (DATE) ?", "MMSE", "ORIENTATION", "3", "", "3", 3, "", "", "", "", "", 1.0, "SCREENING 1", -7, "TREATMENT", "2012-09-16", -16], [170, "CDISCPILOT01", "QS", "01-701-1324", 2002, "MMITM02", "WHERE ARE WE: (STATE) (COUNTRY) (TOWN) ?", "MMSE", "ORIENTATION", "3", "", "3", 3, "", "", "", "", "", 1.0, "SCREENING 1", -7, "TREATMENT", "2012-09-16", -16], [171, "CDISCPILOT01", "QS", "01-701-1324", 2003, "MMITM03", "NAME 3 OBJECTS: 1 SECOND TO SAY EACH.", "MMSE", "REGISTRATION", "3", "", "3", 3, "", "", "", "", "", 1.0, "SCREENING 1", -7, "TREATMENT", "2012-09-16", -16], [172, "CDISCPILOT01", "QS", "01-701-1324", 2004, "MMITM04", "SERIAL 7'S. 1 POINT FOR EACH CORRECT.", "MMSE", "ATTENTION AND CALCULATI", "5", "", "5", 5, "", "", "", "", "", 1.0, "SCREENING 1", -7, "TREATMENT", "2012-09-16", -16], [173, "CDISCPILOT01", "QS", "01-701-1324", 2005, "MMITM05", "ASK FOR THE 3 OBJECTS REPEATED ABOVE.", "MMSE", "RECALL", "0", "", "0", 0, "", "", "", "", "", 1.0, "SCREENING 1", -7, "TREATMENT", "2012-09-16", -16], [174, "CDISCPILOT01", "QS", "01-701-1324", 2006, "MMITM06", "NAME A PENCIL, AND WATCH (2 POINTS)", "MMSE", "LANGUAGE", "9", "", "9", 9, "", "", "", "", "", 1.0, "SCREENING 1", -7, "TREATMENT", "2012-09-16", -16], [175, "CDISCPILOT01", "QS", "01-701-1341", 2001, "MMITM01", "WHAT IS THE (YEAR) (SEASON) (DATE) ?", "MMSE", "ORIENTATION", "4", "", "4", 4, "", "", "", "", "", 1.0, "SCREENING 1", -7, "TREATMENT", "2012-12-22", -14], [176, "CDISCPILOT01", "QS", "01-701-1341", 2002, "MMITM02", "WHERE ARE WE: (STATE) (COUNTRY) (TOWN) ?", "MMSE", "ORIENTATION", "5", "", "5", 5, "", "", "", "", "", 1.0, "SCREENING 1", -7, "TREATMENT", "2012-12-22", -14], [177, "CDISCPILOT01", "QS", "01-701-1341", 2003, "MMITM03", "NAME 3 OBJECTS: 1 SECOND TO SAY EACH.", "MMSE", "REGISTRATION", "2", "", "2", 2, "", "", "", "", "", 1.0, "SCREENING 1", -7, "TREATMENT", "2012-12-22", -14], [178, "CDISCPILOT01", "QS", "01-701-1341", 2004, "MMITM04", "SERIAL 7'S. 1 POINT FOR EACH CORRECT.", "MMSE", "ATTENTION AND CALCULATI", "2", "", "2", 2, "", "", "", "", "", 1.0, "SCREENING 1", -7, "TREATMENT", "2012-12-22", -14], [179, "CDISCPILOT01", "QS", "01-701-1341", 2005, "MMITM05", "ASK FOR THE 3 OBJECTS REPEATED ABOVE.", "MMSE", "RECALL", "2", "", "2", 2, "", "", "", "", "", 1.0, "SCREENING 1", -7, "TREATMENT", "2012-12-22", -14], [180, "CDISCPILOT01", "QS", "01-701-1341", 2006, "MMITM06", "NAME A PENCIL, AND WATCH (2 POINTS)", "MMSE", "LANGUAGE", "8", "", "8", 8, "", "", "", "", "", 1.0, "SCREENING 1", -7, "TREATMENT", "2012-12-22", -14], [181, "CDISCPILOT01", "QS", "01-701-1345", 2001, "MMITM01", "WHAT IS THE (YEAR) (SEASON) (DATE) ?", "MMSE", "ORIENTATION", "2", "", "2", 2, "", "", "", "", "", 1.0, "SCREENING 1", -7, "TREATMENT", "2013-10-01", -7], [182, "CDISCPILOT01", "QS", "01-701-1345", 2002, "MMITM02", "WHERE ARE WE: (STATE) (COUNTRY) (TOWN) ?", "MMSE", "ORIENTATION", "3", "", "3", 3, "", "", "", "", "", 1.0, "SCREENING 1", -7, "TREATMENT", "2013-10-01", -7], [183, "CDISCPILOT01", "QS", "01-701-1345", 2003, "MMITM03", "NAME 3 OBJECTS: 1 SECOND TO SAY EACH.", "MMSE", "REGISTRATION", "3", "", "3", 3, "", "", "", "", "", 1.0, "SCREENING 1", -7, "TREATMENT", "2013-10-01", -7], [184, "CDISCPILOT01", "QS", "01-701-1345", 2004, "MMITM04", "SERIAL 7'S. 1 POINT FOR EACH CORRECT.", "MMSE", "ATTENTION AND CALCULATI", "5", "", "5", 5, "", "", "", "", "", 1.0, "SCREENING 1", -7, "TREATMENT", "2013-10-01", -7], [185, "CDISCPILOT01", "QS", "01-701-1345", 2005, "MMITM05", "ASK FOR THE 3 OBJECTS REPEATED ABOVE.", "MMSE", "RECALL", "2", "", "2", 2, "", "", "", "", "", 1.0, "SCREENING 1", -7, "TREATMENT", "2013-10-01", -7], [186, "CDISCPILOT01", "QS", "01-701-1345", 2006, "MMITM06", "NAME A PENCIL, AND WATCH (2 POINTS)", "MMSE", "LANGUAGE", "8", "", "8", 8, "", "", "", "", "", 1.0, "SCREENING 1", -7, "TREATMENT", "2013-10-01", -7], [187, "CDISCPILOT01", "QS", "01-701-1360", 2001, "MMITM01", "WHAT IS THE (YEAR) (SEASON) (DATE) ?", "MMSE", "ORIENTATION", "5", "", "5", 5, "", "", "", "", "", 1.0, "SCREENING 1", -7, "TREATMENT", "2013-07-24", -7], [188, "CDISCPILOT01", "QS", "01-701-1360", 2002, "MMITM02", "WHERE ARE WE: (STATE) (COUNTRY) (TOWN) ?", "MMSE", "ORIENTATION", "3", "", "3", 3, "", "", "", "", "", 1.0, "SCREENING 1", -7, "TREATMENT", "2013-07-24", -7], [189, "CDISCPILOT01", "QS", "01-701-1360", 2003, "MMITM03", "NAME 3 OBJECTS: 1 SECOND TO SAY EACH.", "MMSE", "REGISTRATION", "3", "", "3", 3, "", "", "", "", "", 1.0, "SCREENING 1", -7, "TREATMENT", "2013-07-24", -7], [190, "CDISCPILOT01", "QS", "01-701-1360", 2004, "MMITM04", "SERIAL 7'S. 1 POINT FOR EACH CORRECT.", "MMSE", "ATTENTION AND CALCULATI", "4", "", "4", 4, "", "", "", "", "", 1.0, "SCREENING 1", -7, "TREATMENT", "2013-07-24", -7], [191, "CDISCPILOT01", "QS", "01-701-1360", 2005, "MMITM05", "ASK FOR THE 3 OBJECTS REPEATED ABOVE.", "MMSE", "RECALL", "1", "", "1", 1, "", "", "", "", "", 1.0, "SCREENING 1", -7, "TREATMENT", "2013-07-24", -7], [192, "CDISCPILOT01", "QS", "01-701-1360", 2006, "MMITM06", "NAME A PENCIL, AND WATCH (2 POINTS)", "MMSE", "LANGUAGE", "7", "", "7", 7, "", "", "", "", "", 1.0, "SCREENING 1", -7, "TREATMENT", "2013-07-24", -7], [193, "CDISCPILOT01", "QS", "01-701-1363", 2001, "MMITM01", "WHAT IS THE (YEAR) (SEASON) (DATE) ?", "MMSE", "ORIENTATION", "3", "", "3", 3, "", "", "", "", "", 1.0, "SCREENING 1", -7, "TREATMENT", "2013-05-20", -10], [194, "CDISCPILOT01", "QS", "01-701-1363", 2002, "MMITM02", "WHERE ARE WE: (STATE) (COUNTRY) (TOWN) ?", "MMSE", "ORIENTATION", "5", "", "5", 5, "", "", "", "", "", 1.0, "SCREENING 1", -7, "TREATMENT", "2013-05-20", -10], [195, "CDISCPILOT01", "QS", "01-701-1363", 2003, "MMITM03", "NAME 3 OBJECTS: 1 SECOND TO SAY EACH.", "MMSE", "REGISTRATION", "3", "", "3", 3, "", "", "", "", "", 1.0, "SCREENING 1", -7, "TREATMENT", "2013-05-20", -10], [196, "CDISCPILOT01", "QS", "01-701-1363", 2004, "MMITM04", "SERIAL 7'S. 1 POINT FOR EACH CORRECT.", "MMSE", "ATTENTION AND CALCULATI", "4", "", "4", 4, "", "", "", "", "", 1.0, "SCREENING 1", -7, "TREATMENT", "2013-05-20", -10], [197, "CDISCPILOT01", "QS", "01-701-1363", 2005, "MMITM05", "ASK FOR THE 3 OBJECTS REPEATED ABOVE.", "MMSE", "RECALL", "0", "", "0", 0, "", "", "", "", "", 1.0, "SCREENING 1", -7, "TREATMENT", "2013-05-20", -10], [198, "CDISCPILOT01", "QS", "01-701-1363", 2006, "MMITM06", "NAME A PENCIL, AND WATCH (2 POINTS)", "MMSE", "LANGUAGE", "7", "", "7", 7, "", "", "", "", "", 1.0, "SCREENING 1", -7, "TREATMENT", "2013-05-20", -10], [199, "CDISCPILOT01", "QS", "01-701-1383", 2001, "MMITM01", "WHAT IS THE (YEAR) (SEASON) (DATE) ?", "MMSE", "ORIENTATION", "1", "", "1", 1, "", "", "", "", "", 1.0, "SCREENING 1", -7, "TREATMENT", "2013-01-22", -13], [200, "CDISCPILOT01", "QS", "01-701-1383", 2002, "MMITM02", "WHERE ARE WE: (STATE) (COUNTRY) (TOWN) ?", "MMSE", "ORIENTATION", "5", "", "5", 5, "", "", "", "", "", 1.0, "SCREENING 1", -7, "TREATMENT", "2013-01-22", -13], [201, "CDISCPILOT01", "QS", "01-701-1383", 2003, "MMITM03", "NAME 3 OBJECTS: 1 SECOND TO SAY EACH.", "MMSE", "REGISTRATION", "3", "", "3", 3, "", "", "", "", "", 1.0, "SCREENING 1", -7, "TREATMENT", "2013-01-22", -13], [202, "CDISCPILOT01", "QS", "01-701-1383", 2004, "MMITM04", "SERIAL 7'S. 1 POINT FOR EACH CORRECT.", "MMSE", "ATTENTION AND CALCULATI", "5", "", "5", 5, "", "", "", "", "", 1.0, "SCREENING 1", -7, "TREATMENT", "2013-01-22", -13], [203, "CDISCPILOT01", "QS", "01-701-1383", 2005, "MMITM05", "ASK FOR THE 3 OBJECTS REPEATED ABOVE.", "MMSE", "RECALL", "0", "", "0", 0, "", "", "", "", "", 1.0, "SCREENING 1", -7, "TREATMENT", "2013-01-22", -13], [204, "CDISCPILOT01", "QS", "01-701-1383", 2006, "MMITM06", "NAME A PENCIL, AND WATCH (2 POINTS)", "MMSE", "LANGUAGE", "8", "", "8", 8, "", "", "", "", "", 1.0, "SCREENING 1", -7, "TREATMENT", "2013-01-22", -13], [205, "CDISCPILOT01", "QS", "01-701-1387", 2001, "MMITM01", "WHAT IS THE (YEAR) (SEASON) (DATE) ?", "MMSE", "ORIENTATION", "0", "", "0", 0, "", "", "", "", "", 1.0, "SCREENING 1", -7, "TREATMENT", "2014-02-23", -17], [206, "CDISCPILOT01", "QS", "01-701-1387", 2002, "MMITM02", "WHERE ARE WE: (STATE) (COUNTRY) (TOWN) ?", "MMSE", "ORIENTATION", "0", "", "0", 0, "", "", "", "", "", 1.0, "SCREENING 1", -7, "TREATMENT", "2014-02-23", -17], [207, "CDISCPILOT01", "QS", "01-701-1387", 2003, "MMITM03", "NAME 3 OBJECTS: 1 SECOND TO SAY EACH.", "MMSE", "REGISTRATION", "3", "", "3", 3, "", "", "", "", "", 1.0, "SCREENING 1", -7, "TREATMENT", "2014-02-23", -17], [208, "CDISCPILOT01", "QS", "01-701-1387", 2004, "MMITM04", "SERIAL 7'S. 1 POINT FOR EACH CORRECT.", "MMSE", "ATTENTION AND CALCULATI", "4", "", "4", 4, "", "", "", "", "", 1.0, "SCREENING 1", -7, "TREATMENT", "2014-02-23", -17], [209, "CDISCPILOT01", "QS", "01-701-1387", 2005, "MMITM05", "ASK FOR THE 3 OBJECTS REPEATED ABOVE.", "MMSE", "RECALL", "0", "", "0", 0, "", "", "", "", "", 1.0, "SCREENING 1", -7, "TREATMENT", "2014-02-23", -17], [210, "CDISCPILOT01", "QS", "01-701-1387", 2006, "MMITM06", "NAME A PENCIL, AND WATCH (2 POINTS)", "MMSE", "LANGUAGE", "4", "", "4", 4, "", "", "", "", "", 1.0, "SCREENING 1", -7, "TREATMENT", "2014-02-23", -17], [211, "CDISCPILOT01", "QS", "01-701-1392", 2001, "MMITM01", "WHAT IS THE (YEAR) (SEASON) (DATE) ?", "MMSE", "ORIENTATION", "2", "", "2", 2, "", "", "", "", "", 1.0, "SCREENING 1", -7, "TREATMENT", "2012-10-17", -11], [212, "CDISCPILOT01", "QS", "01-701-1392", 2002, "MMITM02", "WHERE ARE WE: (STATE) (COUNTRY) (TOWN) ?", "MMSE", "ORIENTATION", "5", "", "5", 5, "", "", "", "", "", 1.0, "SCREENING 1", -7, "TREATMENT", "2012-10-17", -11], [213, "CDISCPILOT01", "QS", "01-701-1392", 2003, "MMITM03", "NAME 3 OBJECTS: 1 SECOND TO SAY EACH.", "MMSE", "REGISTRATION", "3", "", "3", 3, "", "", "", "", "", 1.0, "SCREENING 1", -7, "TREATMENT", "2012-10-17", -11], [214, "CDISCPILOT01", "QS", "01-701-1392", 2004, "MMITM04", "SERIAL 7'S. 1 POINT FOR EACH CORRECT.", "MMSE", "ATTENTION AND CALCULATI", "5", "", "5", 5, "", "", "", "", "", 1.0, "SCREENING 1", -7, "TREATMENT", "2012-10-17", -11], [215, "CDISCPILOT01", "QS", "01-701-1392", 2005, "MMITM05", "ASK FOR THE 3 OBJECTS REPEATED ABOVE.", "MMSE", "RECALL", "0", "", "0", 0, "", "", "", "", "", 1.0, "SCREENING 1", -7, "TREATMENT", "2012-10-17", -11], [216, "CDISCPILOT01", "QS", "01-701-1392", 2006, "MMITM06", "NAME A PENCIL, AND WATCH (2 POINTS)", "MMSE", "LANGUAGE", "8", "", "8", 8, "", "", "", "", "", 1.0, "SCREENING 1", -7, "TREATMENT", "2012-10-17", -11], [217, "CDISCPILOT01", "QS", "01-701-1415", 2001, "MMITM01", "WHAT IS THE (YEAR) (SEASON) (DATE) ?", "MMSE", "ORIENTATION", "1", "", "1", 1, "", "", "", "", "", 1.0, "SCREENING 1", -7, "TREATMENT", "2013-09-15", -8], [218, "CDISCPILOT01", "QS", "01-701-1415", 2002, "MMITM02", "WHERE ARE WE: (STATE) (COUNTRY) (TOWN) ?", "MMSE", "ORIENTATION", "2", "", "2", 2, "", "", "", "", "", 1.0, "SCREENING 1", -7, "TREATMENT", "2013-09-15", -8], [219, "CDISCPILOT01", "QS", "01-701-1415", 2003, "MMITM03", "NAME 3 OBJECTS: 1 SECOND TO SAY EACH.", "MMSE", "REGISTRATION", "3", "", "3", 3, "", "", "", "", "", 1.0, "SCREENING 1", -7, "TREATMENT", "2013-09-15", -8], [220, "CDISCPILOT01", "QS", "01-701-1415", 2004, "MMITM04", "SERIAL 7'S. 1 POINT FOR EACH CORRECT.", "MMSE", "ATTENTION AND CALCULATI", "4", "", "4", 4, "", "", "", "", "", 1.0, "SCREENING 1", -7, "TREATMENT", "2013-09-15", -8], [221, "CDISCPILOT01", "QS", "01-701-1415", 2005, "MMITM05", "ASK FOR THE 3 OBJECTS REPEATED ABOVE.", "MMSE", "RECALL", "0", "", "0", 0, "", "", "", "", "", 1.0, "SCREENING 1", -7, "TREATMENT", "2013-09-15", -8], [222, "CDISCPILOT01", "QS", "01-701-1415", 2006, "MMITM06", "NAME A PENCIL, AND WATCH (2 POINTS)", "MMSE", "LANGUAGE", "8", "", "8", 8, "", "", "", "", "", 1.0, "SCREENING 1", -7, "TREATMENT", "2013-09-15", -8], [223, "CDISCPILOT01", "QS", "01-701-1429", 2001, "MMITM01", "WHAT IS THE (YEAR) (SEASON) (DATE) ?", "MMSE", "ORIENTATION", "2", "", "2", 2, "", "", "", "", "", 1.0, "SCREENING 1", -7, "TREATMENT", "2013-02-25", -22], [224, "CDISCPILOT01", "QS", "01-701-1429", 2002, "MMITM02", "WHERE ARE WE: (STATE) (COUNTRY) (TOWN) ?", "MMSE", "ORIENTATION", "0", "", "0", 0, "", "", "", "", "", 1.0, "SCREENING 1", -7, "TREATMENT", "2013-02-25", -22], [225, "CDISCPILOT01", "QS", "01-701-1429", 2003, "MMITM03", "NAME 3 OBJECTS: 1 SECOND TO SAY EACH.", "MMSE", "REGISTRATION", "3", "", "3", 3, "", "", "", "", "", 1.0, "SCREENING 1", -7, "TREATMENT", "2013-02-25", -22], [226, "CDISCPILOT01", "QS", "01-701-1429", 2004, "MMITM04", "SERIAL 7'S. 1 POINT FOR EACH CORRECT.", "MMSE", "ATTENTION AND CALCULATI", "4", "", "4", 4, "", "", "", "", "", 1.0, "SCREENING 1", -7, "TREATMENT", "2013-02-25", -22], [227, "CDISCPILOT01", "QS", "01-701-1429", 2005, "MMITM05", "ASK FOR THE 3 OBJECTS REPEATED ABOVE.", "MMSE", "RECALL", "0", "", "0", 0, "", "", "", "", "", 1.0, "SCREENING 1", -7, "TREATMENT", "2013-02-25", -22], [228, "CDISCPILOT01", "QS", "01-701-1429", 2006, "MMITM06", "NAME A PENCIL, AND WATCH (2 POINTS)", "MMSE", "LANGUAGE", "8", "", "8", 8, "", "", "", "", "", 1.0, "SCREENING 1", -7, "TREATMENT", "2013-02-25", -22], [229, "CDISCPILOT01", "QS", "01-701-1440", 2001, "MMITM01", "WHAT IS THE (YEAR) (SEASON) (DATE) ?", "MMSE", "ORIENTATION", "1", "", "1", 1, "", "", "", "", "", 1.0, "SCREENING 1", -7, "TREATMENT", "2013-07-24", -15], [230, "CDISCPILOT01", "QS", "01-701-1440", 2002, "MMITM02", "WHERE ARE WE: (STATE) (COUNTRY) (TOWN) ?", "MMSE", "ORIENTATION", "4", "", "4", 4, "", "", "", "", "", 1.0, "SCREENING 1", -7, "TREATMENT", "2013-07-24", -15], [231, "CDISCPILOT01", "QS", "01-701-1440", 2003, "MMITM03", "NAME 3 OBJECTS: 1 SECOND TO SAY EACH.", "MMSE", "REGISTRATION", "3", "", "3", 3, "", "", "", "", "", 1.0, "SCREENING 1", -7, "TREATMENT", "2013-07-24", -15], [232, "CDISCPILOT01", "QS", "01-701-1440", 2004, "MMITM04", "SERIAL 7'S. 1 POINT FOR EACH CORRECT.", "MMSE", "ATTENTION AND CALCULATI", "5", "", "5", 5, "", "", "", "", "", 1.0, "SCREENING 1", -7, "TREATMENT", "2013-07-24", -15], [233, "CDISCPILOT01", "QS", "01-701-1440", 2005, "MMITM05", "ASK FOR THE 3 OBJECTS REPEATED ABOVE.", "MMSE", "RECALL", "0", "", "0", 0, "", "", "", "", "", 1.0, "SCREENING 1", -7, "TREATMENT", "2013-07-24", -15], [234, "CDISCPILOT01", "QS", "01-701-1440", 2006, "MMITM06", "NAME A PENCIL, AND WATCH (2 POINTS)", "MMSE", "LANGUAGE", "9", "", "9", 9, "", "", "", "", "", 1.0, "SCREENING 1", -7, "TREATMENT", "2013-07-24", -15], [235, "CDISCPILOT01", "QS", "01-701-1442", 2001, "MMITM01", "WHAT IS THE (YEAR) (SEASON) (DATE) ?", "MMSE", "ORIENTATION", "1", "", "1", 1, "", "", "", "", "", 1.0, "SCREENING 1", -7, "TREATMENT", "2013-10-17", -9], [236, "CDISCPILOT01", "QS", "01-701-1442", 2002, "MMITM02", "WHERE ARE WE: (STATE) (COUNTRY) (TOWN) ?", "MMSE", "ORIENTATION", "3", "", "3", 3, "", "", "", "", "", 1.0, "SCREENING 1", -7, "TREATMENT", "2013-10-17", -9], [237, "CDISCPILOT01", "QS", "01-701-1442", 2003, "MMITM03", "NAME 3 OBJECTS: 1 SECOND TO SAY EACH.", "MMSE", "REGISTRATION", "2", "", "2", 2, "", "", "", "", "", 1.0, "SCREENING 1", -7, "TREATMENT", "2013-10-17", -9], [238, "CDISCPILOT01", "QS", "01-701-1442", 2004, "MMITM04", "SERIAL 7'S. 1 POINT FOR EACH CORRECT.", "MMSE", "ATTENTION AND CALCULATI", "2", "", "2", 2, "", "", "", "", "", 1.0, "SCREENING 1", -7, "TREATMENT", "2013-10-17", -9], [239, "CDISCPILOT01", "QS", "01-701-1442", 2005, "MMITM05", "ASK FOR THE 3 OBJECTS REPEATED ABOVE.", "MMSE", "RECALL", "1", "", "1", 1, "", "", "", "", "", 1.0, "SCREENING 1", -7, "TREATMENT", "2013-10-17", -9], [240, "CDISCPILOT01", "QS", "01-701-1442", 2006, "MMITM06", "NAME A PENCIL, AND WATCH (2 POINTS)", "MMSE", "LANGUAGE", "6", "", "6", 6, "", "", "", "", "", 1.0, "SCREENING 1", -7, "TREATMENT", "2013-10-17", -9], [241, "CDISCPILOT01", "QS", "01-701-1444", 2001, "MMITM01", "WHAT IS THE (YEAR) (SEASON) (DATE) ?", "MMSE", "ORIENTATION", "5", "", "5", 5, "", "", "", "", "", 1.0, "SCREENING 1", -7, "TREATMENT", "2012-12-31", -5], [242, "CDISCPILOT01", "QS", "01-701-1444", 2002, "MMITM02", "WHERE ARE WE: (STATE) (COUNTRY) (TOWN) ?", "MMSE", "ORIENTATION", "3", "", "3", 3, "", "", "", "", "", 1.0, "SCREENING 1", -7, "TREATMENT", "2012-12-31", -5], [243, "CDISCPILOT01", "QS", "01-701-1444", 2003, "MMITM03", "NAME 3 OBJECTS: 1 SECOND TO SAY EACH.", "MMSE", "REGISTRATION", "3", "", "3", 3, "", "", "", "", "", 1.0, "SCREENING 1", -7, "TREATMENT", "2012-12-31", -5], [244, "CDISCPILOT01", "QS", "01-701-1444", 2004, "MMITM04", "SERIAL 7'S. 1 POINT FOR EACH CORRECT.", "MMSE", "ATTENTION AND CALCULATI", "5", "", "5", 5, "", "", "", "", "", 1.0, "SCREENING 1", -7, "TREATMENT", "2012-12-31", -5], [245, "CDISCPILOT01", "QS", "01-701-1444", 2005, "MMITM05", "ASK FOR THE 3 OBJECTS REPEATED ABOVE.", "MMSE", "RECALL", "1", "", "1", 1, "", "", "", "", "", 1.0, "SCREENING 1", -7, "TREATMENT", "2012-12-31", -5], [246, "CDISCPILOT01", "QS", "01-701-1444", 2006, "MMITM06", "NAME A PENCIL, AND WATCH (2 POINTS)", "MMSE", "LANGUAGE", "6", "", "6", 6, "", "", "", "", "", 1.0, "SCREENING 1", -7, "TREATMENT", "2012-12-31", -5], [247, "CDISCPILOT01", "QS", "01-702-1082", 2001, "MMITM01", "WHAT IS THE (YEAR) (SEASON) (DATE) ?", "MMSE", "ORIENTATION", "3", "", "3", 3, "", "", "", "", "", 1.0, "SCREENING 1", -7, "TREATMENT", "2013-07-03", -23], [248, "CDISCPILOT01", "QS", "01-702-1082", 2002, "MMITM02", "WHERE ARE WE: (STATE) (COUNTRY) (TOWN) ?", "MMSE", "ORIENTATION", "5", "", "5", 5, "", "", "", "", "", 1.0, "SCREENING 1", -7, "TREATMENT", "2013-07-03", -23], [249, "CDISCPILOT01", "QS", "01-702-1082", 2003, "MMITM03", "NAME 3 OBJECTS: 1 SECOND TO SAY EACH.", "MMSE", "REGISTRATION", "3", "", "3", 3, "", "", "", "", "", 1.0, "SCREENING 1", -7, "TREATMENT", "2013-07-03", -23], [250, "CDISCPILOT01", "QS", "01-702-1082", 2004, "MMITM04", "SERIAL 7'S. 1 POINT FOR EACH CORRECT.", "MMSE", "ATTENTION AND CALCULATI", "4", "", "4", 4, "", "", "", "", "", 1.0, "SCREENING 1", -7, "TREATMENT", "2013-07-03", -23], [251, "CDISCPILOT01", "QS", "01-702-1082", 2005, "MMITM05", "ASK FOR THE 3 OBJECTS REPEATED ABOVE.", "MMSE", "RECALL", "1", "", "1", 1, "", "", "", "", "", 1.0, "SCREENING 1", -7, "TREATMENT", "2013-07-03", -23], [252, "CDISCPILOT01", "QS", "01-702-1082", 2006, "MMITM06", "NAME A PENCIL, AND WATCH (2 POINTS)", "MMSE", "LANGUAGE", "7", "", "7", 7, "", "", "", "", "", 1.0, "SCREENING 1", -7, "TREATMENT", "2013-07-03", -23], [253, "CDISCPILOT01", "QS", "01-703-1042", 2001, "MMITM01", "WHAT IS THE (YEAR) (SEASON) (DATE) ?", "MMSE", "ORIENTATION", "4", "", "4", 4, "", "", "", "", "", 1.0, "SCREENING 1", -7, "TREATMENT", "2013-02-23", -7], [254, "CDISCPILOT01", "QS", "01-703-1042", 2002, "MMITM02", "WHERE ARE WE: (STATE) (COUNTRY) (TOWN) ?", "MMSE", "ORIENTATION", "3", "", "3", 3, "", "", "", "", "", 1.0, "SCREENING 1", -7, "TREATMENT", "2013-02-23", -7], [255, "CDISCPILOT01", "QS", "01-703-1042", 2003, "MMITM03", "NAME 3 OBJECTS: 1 SECOND TO SAY EACH.", "MMSE", "REGISTRATION", "3", "", "3", 3, "", "", "", "", "", 1.0, "SCREENING 1", -7, "TREATMENT", "2013-02-23", -7], [256, "CDISCPILOT01", "QS", "01-703-1042", 2004, "MMITM04", "SERIAL 7'S. 1 POINT FOR EACH CORRECT.", "MMSE", "ATTENTION AND CALCULATI", "5", "", "5", 5, "", "", "", "", "", 1.0, "SCREENING 1", -7, "TREATMENT", "2013-02-23", -7], [257, "CDISCPILOT01", "QS", "01-703-1042", 2005, "MMITM05", "ASK FOR THE 3 OBJECTS REPEATED ABOVE.", "MMSE", "RECALL", "0", "", "0", 0, "", "", "", "", "", 1.0, "SCREENING 1", -7, "TREATMENT", "2013-02-23", -7], [258, "CDISCPILOT01", "QS", "01-703-1042", 2006, "MMITM06", "NAME A PENCIL, AND WATCH (2 POINTS)", "MMSE", "LANGUAGE", "8", "", "8", 8, "", "", "", "", "", 1.0, "SCREENING 1", -7, "TREATMENT", "2013-02-23", -7], [259, "CDISCPILOT01", "QS", "01-703-1076", 2001, "MMITM01", "WHAT IS THE (YEAR) (SEASON) (DATE) ?", "MMSE", "ORIENTATION", "4", "", "4", 4, "", "", "", "", "", 1.0, "SCREENING 1", -7, "TREATMENT", "2013-10-17", -8], [260, "CDISCPILOT01", "QS", "01-703-1076", 2002, "MMITM02", "WHERE ARE WE: (STATE) (COUNTRY) (TOWN) ?", "MMSE", "ORIENTATION", "5", "", "5", 5, "", "", "", "", "", 1.0, "SCREENING 1", -7, "TREATMENT", "2013-10-17", -8], [261, "CDISCPILOT01", "QS", "01-703-1076", 2003, "MMITM03", "NAME 3 OBJECTS: 1 SECOND TO SAY EACH.", "MMSE", "REGISTRATION", "3", "", "3", 3, "", "", "", "", "", 1.0, "SCREENING 1", -7, "TREATMENT", "2013-10-17", -8], [262, "CDISCPILOT01", "QS", "01-703-1076", 2004, "MMITM04", "SERIAL 7'S. 1 POINT FOR EACH CORRECT.", "MMSE", "ATTENTION AND CALCULATI", "2", "", "2", 2, "", "", "", "", "", 1.0, "SCREENING 1", -7, "TREATMENT", "2013-10-17", -8], [263, "CDISCPILOT01", "QS", "01-703-1076", 2005, "MMITM05", "ASK FOR THE 3 OBJECTS REPEATED ABOVE.", "MMSE", "RECALL", "0", "", "0", 0, "", "", "", "", "", 1.0, "SCREENING 1", -7, "TREATMENT", "2013-10-17", -8], [264, "CDISCPILOT01", "QS", "01-703-1076", 2006, "MMITM06", "NAME A PENCIL, AND WATCH (2 POINTS)", "MMSE", "LANGUAGE", "9", "", "9", 9, "", "", "", "", "", 1.0, "SCREENING 1", -7, "TREATMENT", "2013-10-17", -8], [265, "CDISCPILOT01", "QS", "01-703-1086", 2001, "MMITM01", "WHAT IS THE (YEAR) (SEASON) (DATE) ?", "MMSE", "ORIENTATION", "0", "", "0", 0, "", "", "", "", "", 1.0, "SCREENING 1", -7, "TREATMENT", "2012-08-22", -11], [266, "CDISCPILOT01", "QS", "01-703-1086", 2002, "MMITM02", "WHERE ARE WE: (STATE) (COUNTRY) (TOWN) ?", "MMSE", "ORIENTATION", "3", "", "3", 3, "", "", "", "", "", 1.0, "SCREENING 1", -7, "TREATMENT", "2012-08-22", -11], [267, "CDISCPILOT01", "QS", "01-703-1086", 2003, "MMITM03", "NAME 3 OBJECTS: 1 SECOND TO SAY EACH.", "MMSE", "REGISTRATION", "3", "", "3", 3, "", "", "", "", "", 1.0, "SCREENING 1", -7, "TREATMENT", "2012-08-22", -11], [268, "CDISCPILOT01", "QS", "01-703-1086", 2004, "MMITM04", "SERIAL 7'S. 1 POINT FOR EACH CORRECT.", "MMSE", "ATTENTION AND CALCULATI", "3", "", "3", 3, "", "", "", "", "", 1.0, "SCREENING 1", -7, "TREATMENT", "2012-08-22", -11], [269, "CDISCPILOT01", "QS", "01-703-1086", 2005, "MMITM05", "ASK FOR THE 3 OBJECTS REPEATED ABOVE.", "MMSE", "RECALL", "0", "", "0", 0, "", "", "", "", "", 1.0, "SCREENING 1", -7, "TREATMENT", "2012-08-22", -11], [270, "CDISCPILOT01", "QS", "01-703-1086", 2006, "MMITM06", "NAME A PENCIL, AND WATCH (2 POINTS)", "MMSE", "LANGUAGE", "8", "", "8", 8, "", "", "", "", "", 1.0, "SCREENING 1", -7, "TREATMENT", "2012-08-22", -11], [271, "CDISCPILOT01", "QS", "01-703-1096", 2001, "MMITM01", "WHAT IS THE (YEAR) (SEASON) (DATE) ?", "MMSE", "ORIENTATION", "4", "", "4", 4, "", "", "", "", "", 1.0, "SCREENING 1", -7, "TREATMENT", "2012-12-19", -37], [272, "CDISCPILOT01", "QS", "01-703-1096", 2002, "MMITM02", "WHERE ARE WE: (STATE) (COUNTRY) (TOWN) ?", "MMSE", "ORIENTATION", "3", "", "3", 3, "", "", "", "", "", 1.0, "SCREENING 1", -7, "TREATMENT", "2012-12-19", -37], [273, "CDISCPILOT01", "QS", "01-703-1096", 2003, "MMITM03", "NAME 3 OBJECTS: 1 SECOND TO SAY EACH.", "MMSE", "REGISTRATION", "3", "", "3", 3, "", "", "", "", "", 1.0, "SCREENING 1", -7, "TREATMENT", "2012-12-19", -37], [274, "CDISCPILOT01", "QS", "01-703-1096", 2004, "MMITM04", "SERIAL 7'S. 1 POINT FOR EACH CORRECT.", "MMSE", "ATTENTION AND CALCULATI", "5", "", "5", 5, "", "", "", "", "", 1.0, "SCREENING 1", -7, "TREATMENT", "2012-12-19", -37], [275, "CDISCPILOT01", "QS", "01-703-1096", 2005, "MMITM05", "ASK FOR THE 3 OBJECTS REPEATED ABOVE.", "MMSE", "RECALL", "0", "", "0", 0, "", "", "", "", "", 1.0, "SCREENING 1", -7, "TREATMENT", "2012-12-19", -37], [276, "CDISCPILOT01", "QS", "01-703-1096", 2006, "MMITM06", "NAME A PENCIL, AND WATCH (2 POINTS)", "MMSE", "LANGUAGE", "7", "", "7", 7, "", "", "", "", "", 1.0, "SCREENING 1", -7, "TREATMENT", "2012-12-19", -37], [277, "CDISCPILOT01", "QS", "01-703-1100", 2001, "MMITM01", "WHAT IS THE (YEAR) (SEASON) (DATE) ?", "MMSE", "ORIENTATION", "2", "", "2", 2, "", "", "", "", "", 1.0, "SCREENING 1", -7, "TREATMENT", "2013-02-28", -13], [278, "CDISCPILOT01", "QS", "01-703-1100", 2002, "MMITM02", "WHERE ARE WE: (STATE) (COUNTRY) (TOWN) ?", "MMSE", "ORIENTATION", "3", "", "3", 3, "", "", "", "", "", 1.0, "SCREENING 1", -7, "TREATMENT", "2013-02-28", -13], [279, "CDISCPILOT01", "QS", "01-703-1100", 2003, "MMITM03", "NAME 3 OBJECTS: 1 SECOND TO SAY EACH.", "MMSE", "REGISTRATION", "3", "", "3", 3, "", "", "", "", "", 1.0, "SCREENING 1", -7, "TREATMENT", "2013-02-28", -13], [280, "CDISCPILOT01", "QS", "01-703-1100", 2004, "MMITM04", "SERIAL 7'S. 1 POINT FOR EACH CORRECT.", "MMSE", "ATTENTION AND CALCULATI", "5", "", "5", 5, "", "", "", "", "", 1.0, "SCREENING 1", -7, "TREATMENT", "2013-02-28", -13], [281, "CDISCPILOT01", "QS", "01-703-1100", 2005, "MMITM05", "ASK FOR THE 3 OBJECTS REPEATED ABOVE.", "MMSE", "RECALL", "0", "", "0", 0, "", "", "", "", "", 1.0, "SCREENING 1", -7, "TREATMENT", "2013-02-28", -13], [282, "CDISCPILOT01", "QS", "01-703-1100", 2006, "MMITM06", "NAME A PENCIL, AND WATCH (2 POINTS)", "MMSE", "LANGUAGE", "9", "", "9", 9, "", "", "", "", "", 1.0, "SCREENING 1", -7, "TREATMENT", "2013-02-28", -13], [283, "CDISCPILOT01", "QS", "01-703-1119", 2001, "MMITM01", "WHAT IS THE (YEAR) (SEASON) (DATE) ?", "MMSE", "ORIENTATION", "0", "", "0", 0, "", "", "", "", "", 1.0, "SCREENING 1", -7, "TREATMENT", "2013-02-02", -18], [284, "CDISCPILOT01", "QS", "01-703-1119", 2002, "MMITM02", "WHERE ARE WE: (STATE) (COUNTRY) (TOWN) ?", "MMSE", "ORIENTATION", "2", "", "2", 2, "", "", "", "", "", 1.0, "SCREENING 1", -7, "TREATMENT", "2013-02-02", -18], [285, "CDISCPILOT01", "QS", "01-703-1119", 2003, "MMITM03", "NAME 3 OBJECTS: 1 SECOND TO SAY EACH.", "MMSE", "REGISTRATION", "3", "", "3", 3, "", "", "", "", "", 1.0, "SCREENING 1", -7, "TREATMENT", "2013-02-02", -18], [286, "CDISCPILOT01", "QS", "01-703-1119", 2004, "MMITM04", "SERIAL 7'S. 1 POINT FOR EACH CORRECT.", "MMSE", "ATTENTION AND CALCULATI", "3", "", "3", 3, "", "", "", "", "", 1.0, "SCREENING 1", -7, "TREATMENT", "2013-02-02", -18], [287, "CDISCPILOT01", "QS", "01-703-1119", 2005, "MMITM05", "ASK FOR THE 3 OBJECTS REPEATED ABOVE.", "MMSE", "RECALL", "0", "", "0", 0, "", "", "", "", "", 1.0, "SCREENING 1", -7, "TREATMENT", "2013-02-02", -18], [288, "CDISCPILOT01", "QS", "01-703-1119", 2006, "MMITM06", "NAME A PENCIL, AND WATCH (2 POINTS)", "MMSE", "LANGUAGE", "6", "", "6", 6, "", "", "", "", "", 1.0, "SCREENING 1", -7, "TREATMENT", "2013-02-02", -18], [289, "CDISCPILOT01", "QS", "01-703-1175", 2001, "MMITM01", "WHAT IS THE (YEAR) (SEASON) (DATE) ?", "MMSE", "ORIENTATION", "1", "", "1", 1, "", "", "", "", "", 1.0, "SCREENING 1", -7, "TREATMENT", "2013-12-13", -7], [290, "CDISCPILOT01", "QS", "01-703-1175", 2002, "MMITM02", "WHERE ARE WE: (STATE) (COUNTRY) (TOWN) ?", "MMSE", "ORIENTATION", "2", "", "2", 2, "", "", "", "", "", 1.0, "SCREENING 1", -7, "TREATMENT", "2013-12-13", -7], [291, "CDISCPILOT01", "QS", "01-703-1175", 2003, "MMITM03", "NAME 3 OBJECTS: 1 SECOND TO SAY EACH.", "MMSE", "REGISTRATION", "3", "", "3", 3, "", "", "", "", "", 1.0, "SCREENING 1", -7, "TREATMENT", "2013-12-13", -7], [292, "CDISCPILOT01", "QS", "01-703-1175", 2004, "MMITM04", "SERIAL 7'S. 1 POINT FOR EACH CORRECT.", "MMSE", "ATTENTION AND CALCULATI", "0", "", "0", 0, "", "", "", "", "", 1.0, "SCREENING 1", -7, "TREATMENT", "2013-12-13", -7], [293, "CDISCPILOT01", "QS", "01-703-1175", 2005, "MMITM05", "ASK FOR THE 3 OBJECTS REPEATED ABOVE.", "MMSE", "RECALL", "0", "", "0", 0, "", "", "", "", "", 1.0, "SCREENING 1", -7, "TREATMENT", "2013-12-13", -7], [294, "CDISCPILOT01", "QS", "01-703-1175", 2006, "MMITM06", "NAME A PENCIL, AND WATCH (2 POINTS)", "MMSE", "LANGUAGE", "5", "", "5", 5, "", "", "", "", "", 1.0, "SCREENING 1", -7, "TREATMENT", "2013-12-13", -7], [295, "CDISCPILOT01", "QS", "01-703-1182", 2001, "MMITM01", "WHAT IS THE (YEAR) (SEASON) (DATE) ?", "MMSE", "ORIENTATION", "3", "", "3", 3, "", "", "", "", "", 1.0, "SCREENING 1", -7, "TREATMENT", "2013-10-08", -9], [296, "CDISCPILOT01", "QS", "01-703-1182", 2002, "MMITM02", "WHERE ARE WE: (STATE) (COUNTRY) (TOWN) ?", "MMSE", "ORIENTATION", "3", "", "3", 3, "", "", "", "", "", 1.0, "SCREENING 1", -7, "TREATMENT", "2013-10-08", -9], [297, "CDISCPILOT01", "QS", "01-703-1182", 2003, "MMITM03", "NAME 3 OBJECTS: 1 SECOND TO SAY EACH.", "MMSE", "REGISTRATION", "3", "", "3", 3, "", "", "", "", "", 1.0, "SCREENING 1", -7, "TREATMENT", "2013-10-08", -9], [298, "CDISCPILOT01", "QS", "01-703-1182", 2004, "MMITM04", "SERIAL 7'S. 1 POINT FOR EACH CORRECT.", "MMSE", "ATTENTION AND CALCULATI", "5", "", "5", 5, "", "", "", "", "", 1.0, "SCREENING 1", -7, "TREATMENT", "2013-10-08", -9], [299, "CDISCPILOT01", "QS", "01-703-1182", 2005, "MMITM05", "ASK FOR THE 3 OBJECTS REPEATED ABOVE.", "MMSE", "RECALL", "0", "", "0", 0, "", "", "", "", "", 1.0, "SCREENING 1", -7, "TREATMENT", "2013-10-08", -9], [300, "CDISCPILOT01", "QS", "01-703-1182", 2006, "MMITM06", "NAME A PENCIL, AND WATCH (2 POINTS)", "MMSE", "LANGUAGE", "8", "", "8", 8, "", "", "", "", "", 1.0, "SCREENING 1", -7, "TREATMENT", "2013-10-08", -9], [301, "CDISCPILOT01", "QS", "01-703-1197", 2001, "MMITM01", "WHAT IS THE (YEAR) (SEASON) (DATE) ?", "MMSE", "ORIENTATION", "0", "", "0", 0, "", "", "", "", "", 1.0, "SCREENING 1", -7, "TREATMENT", "2013-06-01", -15], [302, "CDISCPILOT01", "QS", "01-703-1197", 2002, "MMITM02", "WHERE ARE WE: (STATE) (COUNTRY) (TOWN) ?", "MMSE", "ORIENTATION", "3", "", "3", 3, "", "", "", "", "", 1.0, "SCREENING 1", -7, "TREATMENT", "2013-06-01", -15], [303, "CDISCPILOT01", "QS", "01-703-1197", 2003, "MMITM03", "NAME 3 OBJECTS: 1 SECOND TO SAY EACH.", "MMSE", "REGISTRATION", "3", "", "3", 3, "", "", "", "", "", 1.0, "SCREENING 1", -7, "TREATMENT", "2013-06-01", -15], [304, "CDISCPILOT01", "QS", "01-703-1197", 2004, "MMITM04", "SERIAL 7'S. 1 POINT FOR EACH CORRECT.", "MMSE", "ATTENTION AND CALCULATI", "0", "", "0", 0, "", "", "", "", "", 1.0, "SCREENING 1", -7, "TREATMENT", "2013-06-01", -15], [305, "CDISCPILOT01", "QS", "01-703-1197", 2005, "MMITM05", "ASK FOR THE 3 OBJECTS REPEATED ABOVE.", "MMSE", "RECALL", "0", "", "0", 0, "", "", "", "", "", 1.0, "SCREENING 1", -7, "TREATMENT", "2013-06-01", -15], [306, "CDISCPILOT01", "QS", "01-703-1197", 2006, "MMITM06", "NAME A PENCIL, AND WATCH (2 POINTS)", "MMSE", "LANGUAGE", "6", "", "6", 6, "", "", "", "", "", 1.0, "SCREENING 1", -7, "TREATMENT", "2013-06-01", -15], [307, "CDISCPILOT01", "QS", "01-703-1210", 2001, "MMITM01", "WHAT IS THE (YEAR) (SEASON) (DATE) ?", "MMSE", "ORIENTATION", "0", "", "0", 0, "", "", "", "", "", 1.0, "SCREENING 1", -7, "TREATMENT", "2013-03-08", -8], [308, "CDISCPILOT01", "QS", "01-703-1210", 2002, "MMITM02", "WHERE ARE WE: (STATE) (COUNTRY) (TOWN) ?", "MMSE", "ORIENTATION", "2", "", "2", 2, "", "", "", "", "", 1.0, "SCREENING 1", -7, "TREATMENT", "2013-03-08", -8], [309, "CDISCPILOT01", "QS", "01-703-1210", 2003, "MMITM03", "NAME 3 OBJECTS: 1 SECOND TO SAY EACH.", "MMSE", "REGISTRATION", "3", "", "3", 3, "", "", "", "", "", 1.0, "SCREENING 1", -7, "TREATMENT", "2013-03-08", -8], [310, "CDISCPILOT01", "QS", "01-703-1210", 2004, "MMITM04", "SERIAL 7'S. 1 POINT FOR EACH CORRECT.", "MMSE", "ATTENTION AND CALCULATI", "5", "", "5", 5, "", "", "", "", "", 1.0, "SCREENING 1", -7, "TREATMENT", "2013-03-08", -8], [311, "CDISCPILOT01", "QS", "01-703-1210", 2005, "MMITM05", "ASK FOR THE 3 OBJECTS REPEATED ABOVE.", "MMSE", "RECALL", "3", "", "3", 3, "", "", "", "", "", 1.0, "SCREENING 1", -7, "TREATMENT", "2013-03-08", -8], [312, "CDISCPILOT01", "QS", "01-703-1210", 2006, "MMITM06", "NAME A PENCIL, AND WATCH (2 POINTS)", "MMSE", "LANGUAGE", "6", "", "6", 6, "", "", "", "", "", 1.0, "SCREENING 1", -7, "TREATMENT", "2013-03-08", -8], [313, "CDISCPILOT01", "QS", "01-703-1258", 2001, "MMITM01", "WHAT IS THE (YEAR) (SEASON) (DATE) ?", "MMSE", "ORIENTATION", "1", "", "1", 1, "", "", "", "", "", 1.0, "SCREENING 1", -7, "TREATMENT", "2012-07-10", -10], [314, "CDISCPILOT01", "QS", "01-703-1258", 2002, "MMITM02", "WHERE ARE WE: (STATE) (COUNTRY) (TOWN) ?", "MMSE", "ORIENTATION", "1", "", "1", 1, "", "", "", "", "", 1.0, "SCREENING 1", -7, "TREATMENT", "2012-07-10", -10], [315, "CDISCPILOT01", "QS", "01-703-1258", 2003, "MMITM03", "NAME 3 OBJECTS: 1 SECOND TO SAY EACH.", "MMSE", "REGISTRATION", "3", "", "3", 3, "", "", "", "", "", 1.0, "SCREENING 1", -7, "TREATMENT", "2012-07-10", -10], [316, "CDISCPILOT01", "QS", "01-703-1258", 2004, "MMITM04", "SERIAL 7'S. 1 POINT FOR EACH CORRECT.", "MMSE", "ATTENTION AND CALCULATI", "0", "", "0", 0, "", "", "", "", "", 1.0, "SCREENING 1", -7, "TREATMENT", "2012-07-10", -10], [317, "CDISCPILOT01", "QS", "01-703-1258", 2005, "MMITM05", "ASK FOR THE 3 OBJECTS REPEATED ABOVE.", "MMSE", "RECALL", "0", "", "0", 0, "", "", "", "", "", 1.0, "SCREENING 1", -7, "TREATMENT", "2012-07-10", -10], [318, "CDISCPILOT01", "QS", "01-703-1258", 2006, "MMITM06", "NAME A PENCIL, AND WATCH (2 POINTS)", "MMSE", "LANGUAGE", "8", "", "8", 8, "", "", "", "", "", 1.0, "SCREENING 1", -7, "TREATMENT", "2012-07-10", -10], [319, "CDISCPILOT01", "QS", "01-703-1279", 2001, "MMITM01", "WHAT IS THE (YEAR) (SEASON) (DATE) ?", "MMSE", "ORIENTATION", "1", "", "1", 1, "", "", "", "", "", 1.0, "SCREENING 1", -7, "TREATMENT", "2013-04-27", -16], [320, "CDISCPILOT01", "QS", "01-703-1279", 2002, "MMITM02", "WHERE ARE WE: (STATE) (COUNTRY) (TOWN) ?", "MMSE", "ORIENTATION", "1", "", "1", 1, "", "", "", "", "", 1.0, "SCREENING 1", -7, "TREATMENT", "2013-04-27", -16], [321, "CDISCPILOT01", "QS", "01-703-1279", 2003, "MMITM03", "NAME 3 OBJECTS: 1 SECOND TO SAY EACH.", "MMSE", "REGISTRATION", "3", "", "3", 3, "", "", "", "", "", 1.0, "SCREENING 1", -7, "TREATMENT", "2013-04-27", -16], [322, "CDISCPILOT01", "QS", "01-703-1279", 2004, "MMITM04", "SERIAL 7'S. 1 POINT FOR EACH CORRECT.", "MMSE", "ATTENTION AND CALCULATI", "2", "", "2", 2, "", "", "", "", "", 1.0, "SCREENING 1", -7, "TREATMENT", "2013-04-27", -16], [323, "CDISCPILOT01", "QS", "01-703-1279", 2005, "MMITM05", "ASK FOR THE 3 OBJECTS REPEATED ABOVE.", "MMSE", "RECALL", "0", "", "0", 0, "", "", "", "", "", 1.0, "SCREENING 1", -7, "TREATMENT", "2013-04-27", -16], [324, "CDISCPILOT01", "QS", "01-703-1279", 2006, "MMITM06", "NAME A PENCIL, AND WATCH (2 POINTS)", "MMSE", "LANGUAGE", "7", "", "7", 7, "", "", "", "", "", 1.0, "SCREENING 1", -7, "TREATMENT", "2013-04-27", -16], [325, "CDISCPILOT01", "QS", "01-703-1295", 2001, "MMITM01", "WHAT IS THE (YEAR) (SEASON) (DATE) ?", "MMSE", "ORIENTATION", "3", "", "3", 3, "", "", "", "", "", 1.0, "SCREENING 1", -7, "TREATMENT", "2013-10-24", -28], [326, "CDISCPILOT01", "QS", "01-703-1295", 2002, "MMITM02", "WHERE ARE WE: (STATE) (COUNTRY) (TOWN) ?", "MMSE", "ORIENTATION", "2", "", "2", 2, "", "", "", "", "", 1.0, "SCREENING 1", -7, "TREATMENT", "2013-10-24", -28], [327, "CDISCPILOT01", "QS", "01-703-1295", 2003, "MMITM03", "NAME 3 OBJECTS: 1 SECOND TO SAY EACH.", "MMSE", "REGISTRATION", "3", "", "3", 3, "", "", "", "", "", 1.0, "SCREENING 1", -7, "TREATMENT", "2013-10-24", -28], [328, "CDISCPILOT01", "QS", "01-703-1295", 2004, "MMITM04", "SERIAL 7'S. 1 POINT FOR EACH CORRECT.", "MMSE", "ATTENTION AND CALCULATI", "5", "", "5", 5, "", "", "", "", "", 1.0, "SCREENING 1", -7, "TREATMENT", "2013-10-24", -28], [329, "CDISCPILOT01", "QS", "01-703-1295", 2005, "MMITM05", "ASK FOR THE 3 OBJECTS REPEATED ABOVE.", "MMSE", "RECALL", "0", "", "0", 0, "", "", "", "", "", 1.0, "SCREENING 1", -7, "TREATMENT", "2013-10-24", -28], [330, "CDISCPILOT01", "QS", "01-703-1295", 2006, "MMITM06", "NAME A PENCIL, AND WATCH (2 POINTS)", "MMSE", "LANGUAGE", "7", "", "7", 7, "", "", "", "", "", 1.0, "SCREENING 1", -7, "TREATMENT", "2013-10-24", -28], [331, "CDISCPILOT01", "QS", "01-703-1299", 2001, "MMITM01", "WHAT IS THE (YEAR) (SEASON) (DATE) ?", "MMSE", "ORIENTATION", "4", "", "4", 4, "", "", "", "", "", 1.0, "SCREENING 1", -7, "TREATMENT", "2012-09-07", -5], [332, "CDISCPILOT01", "QS", "01-703-1299", 2002, "MMITM02", "WHERE ARE WE: (STATE) (COUNTRY) (TOWN) ?", "MMSE", "ORIENTATION", "4", "", "4", 4, "", "", "", "", "", 1.0, "SCREENING 1", -7, "TREATMENT", "2012-09-07", -5], [333, "CDISCPILOT01", "QS", "01-703-1299", 2003, "MMITM03", "NAME 3 OBJECTS: 1 SECOND TO SAY EACH.", "MMSE", "REGISTRATION", "3", "", "3", 3, "", "", "", "", "", 1.0, "SCREENING 1", -7, "TREATMENT", "2012-09-07", -5], [334, "CDISCPILOT01", "QS", "01-703-1299", 2004, "MMITM04", "SERIAL 7'S. 1 POINT FOR EACH CORRECT.", "MMSE", "ATTENTION AND CALCULATI", "5", "", "5", 5, "", "", "", "", "", 1.0, "SCREENING 1", -7, "TREATMENT", "2012-09-07", -5], [335, "CDISCPILOT01", "QS", "01-703-1299", 2005, "MMITM05", "ASK FOR THE 3 OBJECTS REPEATED ABOVE.", "MMSE", "RECALL", "0", "", "0", 0, "", "", "", "", "", 1.0, "SCREENING 1", -7, "TREATMENT", "2012-09-07", -5], [336, "CDISCPILOT01", "QS", "01-703-1299", 2006, "MMITM06", "NAME A PENCIL, AND WATCH (2 POINTS)", "MMSE", "LANGUAGE", "7", "", "7", 7, "", "", "", "", "", 1.0, "SCREENING 1", -7, "TREATMENT", "2012-09-07", -5], [337, "CDISCPILOT01", "QS", "01-703-1335", 2001, "MMITM01", "WHAT IS THE (YEAR) (SEASON) (DATE) ?", "MMSE", "ORIENTATION", "0", "", "0", 0, "", "", "", "", "", 1.0, "SCREENING 1", -7, "TREATMENT", "2014-02-28", -17], [338, "CDISCPILOT01", "QS", "01-703-1335", 2002, "MMITM02", "WHERE ARE WE: (STATE) (COUNTRY) (TOWN) ?", "MMSE", "ORIENTATION", "2", "", "2", 2, "", "", "", "", "", 1.0, "SCREENING 1", -7, "TREATMENT", "2014-02-28", -17], [339, "CDISCPILOT01", "QS", "01-703-1335", 2003, "MMITM03", "NAME 3 OBJECTS: 1 SECOND TO SAY EACH.", "MMSE", "REGISTRATION", "3", "", "3", 3, "", "", "", "", "", 1.0, "SCREENING 1", -7, "TREATMENT", "2014-02-28", -17], [340, "CDISCPILOT01", "QS", "01-703-1335", 2004, "MMITM04", "SERIAL 7'S. 1 POINT FOR EACH CORRECT.", "MMSE", "ATTENTION AND CALCULATI", "0", "", "0", 0, "", "", "", "", "", 1.0, "SCREENING 1", -7, "TREATMENT", "2014-02-28", -17], [341, "CDISCPILOT01", "QS", "01-703-1335", 2005, "MMITM05", "ASK FOR THE 3 OBJECTS REPEATED ABOVE.", "MMSE", "RECALL", "0", "", "0", 0, "", "", "", "", "", 1.0, "SCREENING 1", -7, "TREATMENT", "2014-02-28", -17], [342, "CDISCPILOT01", "QS", "01-703-1335", 2006, "MMITM06", "NAME A PENCIL, AND WATCH (2 POINTS)", "MMSE", "LANGUAGE", "5", "", "5", 5, "", "", "", "", "", 1.0, "SCREENING 1", -7, "TREATMENT", "2014-02-28", -17], [343, "CDISCPILOT01", "QS", "01-703-1379", 2001, "MMITM01", "WHAT IS THE (YEAR) (SEASON) (DATE) ?", "MMSE", "ORIENTATION", "1", "", "1", 1, "", "", "", "", "", 1.0, "SCREENING 1", -7, "TREATMENT", "2013-09-12", -10], [344, "CDISCPILOT01", "QS", "01-703-1379", 2002, "MMITM02", "WHERE ARE WE: (STATE) (COUNTRY) (TOWN) ?", "MMSE", "ORIENTATION", "0", "", "0", 0, "", "", "", "", "", 1.0, "SCREENING 1", -7, "TREATMENT", "2013-09-12", -10], [345, "CDISCPILOT01", "QS", "01-703-1379", 2003, "MMITM03", "NAME 3 OBJECTS: 1 SECOND TO SAY EACH.", "MMSE", "REGISTRATION", "3", "", "3", 3, "", "", "", "", "", 1.0, "SCREENING 1", -7, "TREATMENT", "2013-09-12", -10], [346, "CDISCPILOT01", "QS", "01-703-1379", 2004, "MMITM04", "SERIAL 7'S. 1 POINT FOR EACH CORRECT.", "MMSE", "ATTENTION AND CALCULATI", "1", "", "1", 1, "", "", "", "", "", 1.0, "SCREENING 1", -7, "TREATMENT", "2013-09-12", -10], [347, "CDISCPILOT01", "QS", "01-703-1379", 2005, "MMITM05", "ASK FOR THE 3 OBJECTS REPEATED ABOVE.", "MMSE", "RECALL", "0", "", "0", 0, "", "", "", "", "", 1.0, "SCREENING 1", -7, "TREATMENT", "2013-09-12", -10], [348, "CDISCPILOT01", "QS", "01-703-1379", 2006, "MMITM06", "NAME A PENCIL, AND WATCH (2 POINTS)", "MMSE", "LANGUAGE", "7", "", "7", 7, "", "", "", "", "", 1.0, "SCREENING 1", -7, "TREATMENT", "2013-09-12", -10], [349, "CDISCPILOT01", "QS", "01-703-1403", 2001, "MMITM01", "WHAT IS THE (YEAR) (SEASON) (DATE) ?", "MMSE", "ORIENTATION", "3", "", "3", 3, "", "", "", "", "", 1.0, "SCREENING 1", -7, "TREATMENT", "2012-12-05", -7], [350, "CDISCPILOT01", "QS", "01-703-1403", 2002, "MMITM02", "WHERE ARE WE: (STATE) (COUNTRY) (TOWN) ?", "MMSE", "ORIENTATION", "4", "", "4", 4, "", "", "", "", "", 1.0, "SCREENING 1", -7, "TREATMENT", "2012-12-05", -7], [351, "CDISCPILOT01", "QS", "01-703-1403", 2003, "MMITM03", "NAME 3 OBJECTS: 1 SECOND TO SAY EACH.", "MMSE", "REGISTRATION", "3", "", "3", 3, "", "", "", "", "", 1.0, "SCREENING 1", -7, "TREATMENT", "2012-12-05", -7], [352, "CDISCPILOT01", "QS", "01-703-1403", 2004, "MMITM04", "SERIAL 7'S. 1 POINT FOR EACH CORRECT.", "MMSE", "ATTENTION AND CALCULATI", "5", "", "5", 5, "", "", "", "", "", 1.0, "SCREENING 1", -7, "TREATMENT", "2012-12-05", -7], [353, "CDISCPILOT01", "QS", "01-703-1403", 2005, "MMITM05", "ASK FOR THE 3 OBJECTS REPEATED ABOVE.", "MMSE", "RECALL", "0", "", "0", 0, "", "", "", "", "", 1.0, "SCREENING 1", -7, "TREATMENT", "2012-12-05", -7], [354, "CDISCPILOT01", "QS", "01-703-1403", 2006, "MMITM06", "NAME A PENCIL, AND WATCH (2 POINTS)", "MMSE", "LANGUAGE", "8", "", "8", 8, "", "", "", "", "", 1.0, "SCREENING 1", -7, "TREATMENT", "2012-12-05", -7], [355, "CDISCPILOT01", "QS", "01-703-1439", 2001, "MMITM01", "WHAT IS THE (YEAR) (SEASON) (DATE) ?", "MMSE", "ORIENTATION", "3", "", "3", 3, "", "", "", "", "", 1.0, "SCREENING 1", -7, "TREATMENT", "2014-03-04", -8], [356, "CDISCPILOT01", "QS", "01-703-1439", 2002, "MMITM02", "WHERE ARE WE: (STATE) (COUNTRY) (TOWN) ?", "MMSE", "ORIENTATION", "2", "", "2", 2, "", "", "", "", "", 1.0, "SCREENING 1", -7, "TREATMENT", "2014-03-04", -8], [357, "CDISCPILOT01", "QS", "01-703-1439", 2003, "MMITM03", "NAME 3 OBJECTS: 1 SECOND TO SAY EACH.", "MMSE", "REGISTRATION", "3", "", "3", 3, "", "", "", "", "", 1.0, "SCREENING 1", -7, "TREATMENT", "2014-03-04", -8], [358, "CDISCPILOT01", "QS", "01-703-1439", 2004, "MMITM04", "SERIAL 7'S. 1 POINT FOR EACH CORRECT.", "MMSE", "ATTENTION AND CALCULATI", "1", "", "1", 1, "", "", "", "", "", 1.0, "SCREENING 1", -7, "TREATMENT", "2014-03-04", -8], [359, "CDISCPILOT01", "QS", "01-703-1439", 2005, "MMITM05", "ASK FOR THE 3 OBJECTS REPEATED ABOVE.", "MMSE", "RECALL", "0", "", "0", 0, "", "", "", "", "", 1.0, "SCREENING 1", -7, "TREATMENT", "2014-03-04", -8], [360, "CDISCPILOT01", "QS", "01-703-1439", 2006, "MMITM06", "NAME A PENCIL, AND WATCH (2 POINTS)", "MMSE", "LANGUAGE", "7", "", "7", 7, "", "", "", "", "", 1.0, "SCREENING 1", -7, "TREATMENT", "2014-03-04", -8], [361, "CDISCPILOT01", "QS", "01-704-1008", 2001, "MMITM01", "WHAT IS THE (YEAR) (SEASON) (DATE) ?", "MMSE", "ORIENTATION", "5", "", "5", 5, "", "", "", "", "", 1.0, "SCREENING 1", -7, "TREATMENT", "2013-01-06", -7], [362, "CDISCPILOT01", "QS", "01-704-1008", 2002, "MMITM02", "WHERE ARE WE: (STATE) (COUNTRY) (TOWN) ?", "MMSE", "ORIENTATION", "3", "", "3", 3, "", "", "", "", "", 1.0, "SCREENING 1", -7, "TREATMENT", "2013-01-06", -7], [363, "CDISCPILOT01", "QS", "01-704-1008", 2003, "MMITM03", "NAME 3 OBJECTS: 1 SECOND TO SAY EACH.", "MMSE", "REGISTRATION", "3", "", "3", 3, "", "", "", "", "", 1.0, "SCREENING 1", -7, "TREATMENT", "2013-01-06", -7], [364, "CDISCPILOT01", "QS", "01-704-1008", 2004, "MMITM04", "SERIAL 7'S. 1 POINT FOR EACH CORRECT.", "MMSE", "ATTENTION AND CALCULATI", "3", "", "3", 3, "", "", "", "", "", 1.0, "SCREENING 1", -7, "TREATMENT", "2013-01-06", -7], [365, "CDISCPILOT01", "QS", "01-704-1008", 2005, "MMITM05", "ASK FOR THE 3 OBJECTS REPEATED ABOVE.", "MMSE", "RECALL", "2", "", "2", 2, "", "", "", "", "", 1.0, "SCREENING 1", -7, "TREATMENT", "2013-01-06", -7], [366, "CDISCPILOT01", "QS", "01-704-1008", 2006, "MMITM06", "NAME A PENCIL, AND WATCH (2 POINTS)", "MMSE", "LANGUAGE", "5", "", "5", 5, "", "", "", "", "", 1.0, "SCREENING 1", -7, "TREATMENT", "2013-01-06", -7], [367, "CDISCPILOT01", "QS", "01-704-1009", 2001, "MMITM01", "WHAT IS THE (YEAR) (SEASON) (DATE) ?", "MMSE", "ORIENTATION", "3", "", "3", 3, "", "", "", "", "", 1.0, "SCREENING 1", -7, "TREATMENT", "2013-08-20", -7], [368, "CDISCPILOT01", "QS", "01-704-1009", 2002, "MMITM02", "WHERE ARE WE: (STATE) (COUNTRY) (TOWN) ?", "MMSE", "ORIENTATION", "2", "", "2", 2, "", "", "", "", "", 1.0, "SCREENING 1", -7, "TREATMENT", "2013-08-20", -7], [369, "CDISCPILOT01", "QS", "01-704-1009", 2003, "MMITM03", "NAME 3 OBJECTS: 1 SECOND TO SAY EACH.", "MMSE", "REGISTRATION", "3", "", "3", 3, "", "", "", "", "", 1.0, "SCREENING 1", -7, "TREATMENT", "2013-08-20", -7], [370, "CDISCPILOT01", "QS", "01-704-1009", 2004, "MMITM04", "SERIAL 7'S. 1 POINT FOR EACH CORRECT.", "MMSE", "ATTENTION AND CALCULATI", "5", "", "5", 5, "", "", "", "", "", 1.0, "SCREENING 1", -7, "TREATMENT", "2013-08-20", -7], [371, "CDISCPILOT01", "QS", "01-704-1009", 2005, "MMITM05", "ASK FOR THE 3 OBJECTS REPEATED ABOVE.", "MMSE", "RECALL", "0", "", "0", 0, "", "", "", "", "", 1.0, "SCREENING 1", -7, "TREATMENT", "2013-08-20", -7], [372, "CDISCPILOT01", "QS", "01-704-1009", 2006, "MMITM06", "NAME A PENCIL, AND WATCH (2 POINTS)", "MMSE", "LANGUAGE", "8", "", "8", 8, "", "", "", "", "", 1.0, "SCREENING 1", -7, "TREATMENT", "2013-08-20", -7], [373, "CDISCPILOT01", "QS", "01-704-1010", 2001, "MMITM01", "WHAT IS THE (YEAR) (SEASON) (DATE) ?", "MMSE", "ORIENTATION", "1", "", "1", 1, "", "", "", "", "", 1.0, "SCREENING 1", -7, "TREATMENT", "2014-02-08", -13], [374, "CDISCPILOT01", "QS", "01-704-1010", 2002, "MMITM02", "WHERE ARE WE: (STATE) (COUNTRY) (TOWN) ?", "MMSE", "ORIENTATION", "1", "", "1", 1, "", "", "", "", "", 1.0, "SCREENING 1", -7, "TREATMENT", "2014-02-08", -13], [375, "CDISCPILOT01", "QS", "01-704-1010", 2003, "MMITM03", "NAME 3 OBJECTS: 1 SECOND TO SAY EACH.", "MMSE", "REGISTRATION", "3", "", "3", 3, "", "", "", "", "", 1.0, "SCREENING 1", -7, "TREATMENT", "2014-02-08", -13], [376, "CDISCPILOT01", "QS", "01-704-1010", 2004, "MMITM04", "SERIAL 7'S. 1 POINT FOR EACH CORRECT.", "MMSE", "ATTENTION AND CALCULATI", "4", "", "4", 4, "", "", "", "", "", 1.0, "SCREENING 1", -7, "TREATMENT", "2014-02-08", -13], [377, "CDISCPILOT01", "QS", "01-704-1010", 2005, "MMITM05", "ASK FOR THE 3 OBJECTS REPEATED ABOVE.", "MMSE", "RECALL", "0", "", "0", 0, "", "", "", "", "", 1.0, "SCREENING 1", -7, "TREATMENT", "2014-02-08", -13], [378, "CDISCPILOT01", "QS", "01-704-1010", 2006, "MMITM06", "NAME A PENCIL, AND WATCH (2 POINTS)", "MMSE", "LANGUAGE", "8", "", "8", 8, "", "", "", "", "", 1.0, "SCREENING 1", -7, "TREATMENT", "2014-02-08", -13], [379, "CDISCPILOT01", "QS", "01-704-1017", 2001, "MMITM01", "WHAT IS THE (YEAR) (SEASON) (DATE) ?", "MMSE", "ORIENTATION", "1", "", "1", 1, "", "", "", "", "", 1.0, "SCREENING 1", -7, "TREATMENT", "2013-09-20", -16], [380, "CDISCPILOT01", "QS", "01-704-1017", 2002, "MMITM02", "WHERE ARE WE: (STATE) (COUNTRY) (TOWN) ?", "MMSE", "ORIENTATION", "3", "", "3", 3, "", "", "", "", "", 1.0, "SCREENING 1", -7, "TREATMENT", "2013-09-20", -16], [381, "CDISCPILOT01", "QS", "01-704-1017", 2003, "MMITM03", "NAME 3 OBJECTS: 1 SECOND TO SAY EACH.", "MMSE", "REGISTRATION", "3", "", "3", 3, "", "", "", "", "", 1.0, "SCREENING 1", -7, "TREATMENT", "2013-09-20", -16], [382, "CDISCPILOT01", "QS", "01-704-1017", 2004, "MMITM04", "SERIAL 7'S. 1 POINT FOR EACH CORRECT.", "MMSE", "ATTENTION AND CALCULATI", "5", "", "5", 5, "", "", "", "", "", 1.0, "SCREENING 1", -7, "TREATMENT", "2013-09-20", -16], [383, "CDISCPILOT01", "QS", "01-704-1017", 2005, "MMITM05", "ASK FOR THE 3 OBJECTS REPEATED ABOVE.", "MMSE", "RECALL", "0", "", "0", 0, "", "", "", "", "", 1.0, "SCREENING 1", -7, "TREATMENT", "2013-09-20", -16], [384, "CDISCPILOT01", "QS", "01-704-1017", 2006, "MMITM06", "NAME A PENCIL, AND WATCH (2 POINTS)", "MMSE", "LANGUAGE", "9", "", "9", 9, "", "", "", "", "", 1.0, "SCREENING 1", -7, "TREATMENT", "2013-09-20", -16], [385, "CDISCPILOT01", "QS", "01-704-1025", 2001, "MMITM01", "WHAT IS THE (YEAR) (SEASON) (DATE) ?", "MMSE", "ORIENTATION", "2", "", "2", 2, "", "", "", "", "", 1.0, "SCREENING 1", -7, "TREATMENT", "2013-09-18", -9], [386, "CDISCPILOT01", "QS", "01-704-1025", 2002, "MMITM02", "WHERE ARE WE: (STATE) (COUNTRY) (TOWN) ?", "MMSE", "ORIENTATION", "1", "", "1", 1, "", "", "", "", "", 1.0, "SCREENING 1", -7, "TREATMENT", "2013-09-18", -9], [387, "CDISCPILOT01", "QS", "01-704-1025", 2003, "MMITM03", "NAME 3 OBJECTS: 1 SECOND TO SAY EACH.", "MMSE", "REGISTRATION", "3", "", "3", 3, "", "", "", "", "", 1.0, "SCREENING 1", -7, "TREATMENT", "2013-09-18", -9], [388, "CDISCPILOT01", "QS", "01-704-1025", 2004, "MMITM04", "SERIAL 7'S. 1 POINT FOR EACH CORRECT.", "MMSE", "ATTENTION AND CALCULATI", "4", "", "4", 4, "", "", "", "", "", 1.0, "SCREENING 1", -7, "TREATMENT", "2013-09-18", -9], [389, "CDISCPILOT01", "QS", "01-704-1025", 2005, "MMITM05", "ASK FOR THE 3 OBJECTS REPEATED ABOVE.", "MMSE", "RECALL", "1", "", "1", 1, "", "", "", "", "", 1.0, "SCREENING 1", -7, "TREATMENT", "2013-09-18", -9], [390, "CDISCPILOT01", "QS", "01-704-1025", 2006, "MMITM06", "NAME A PENCIL, AND WATCH (2 POINTS)", "MMSE", "LANGUAGE", "6", "", "6", 6, "", "", "", "", "", 1.0, "SCREENING 1", -7, "TREATMENT", "2013-09-18", -9], [391, "CDISCPILOT01", "QS", "01-704-1065", 2001, "MMITM01", "WHAT IS THE (YEAR) (SEASON) (DATE) ?", "MMSE", "ORIENTATION", "2", "", "2", 2, "", "", "", "", "", 1.0, "SCREENING 1", -7, "TREATMENT", "2013-10-17", -7], [392, "CDISCPILOT01", "QS", "01-704-1065", 2002, "MMITM02", "WHERE ARE WE: (STATE) (COUNTRY) (TOWN) ?", "MMSE", "ORIENTATION", "2", "", "2", 2, "", "", "", "", "", 1.0, "SCREENING 1", -7, "TREATMENT", "2013-10-17", -7], [393, "CDISCPILOT01", "QS", "01-704-1065", 2003, "MMITM03", "NAME 3 OBJECTS: 1 SECOND TO SAY EACH.", "MMSE", "REGISTRATION", "3", "", "3", 3, "", "", "", "", "", 1.0, "SCREENING 1", -7, "TREATMENT", "2013-10-17", -7], [394, "CDISCPILOT01", "QS", "01-704-1065", 2004, "MMITM04", "SERIAL 7'S. 1 POINT FOR EACH CORRECT.", "MMSE", "ATTENTION AND CALCULATI", "5", "", "5", 5, "", "", "", "", "", 1.0, "SCREENING 1", -7, "TREATMENT", "2013-10-17", -7], [395, "CDISCPILOT01", "QS", "01-704-1065", 2005, "MMITM05", "ASK FOR THE 3 OBJECTS REPEATED ABOVE.", "MMSE", "RECALL", "0", "", "0", 0, "", "", "", "", "", 1.0, "SCREENING 1", -7, "TREATMENT", "2013-10-17", -7], [396, "CDISCPILOT01", "QS", "01-704-1065", 2006, "MMITM06", "NAME A PENCIL, AND WATCH (2 POINTS)", "MMSE", "LANGUAGE", "8", "", "8", 8, "", "", "", "", "", 1.0, "SCREENING 1", -7, "TREATMENT", "2013-10-17", -7], [397, "CDISCPILOT01", "QS", "01-704-1074", 2001, "MMITM01", "WHAT IS THE (YEAR) (SEASON) (DATE) ?", "MMSE", "ORIENTATION", "0", "", "0", 0, "", "", "", "", "", 1.0, "SCREENING 1", -7, "TREATMENT", "2014-01-19", -3], [398, "CDISCPILOT01", "QS", "01-704-1074", 2002, "MMITM02", "WHERE ARE WE: (STATE) (COUNTRY) (TOWN) ?", "MMSE", "ORIENTATION", "2", "", "2", 2, "", "", "", "", "", 1.0, "SCREENING 1", -7, "TREATMENT", "2014-01-19", -3], [399, "CDISCPILOT01", "QS", "01-704-1074", 2003, "MMITM03", "NAME 3 OBJECTS: 1 SECOND TO SAY EACH.", "MMSE", "REGISTRATION", "3", "", "3", 3, "", "", "", "", "", 1.0, "SCREENING 1", -7, "TREATMENT", "2014-01-19", -3], [400, "CDISCPILOT01", "QS", "01-704-1074", 2004, "MMITM04", "SERIAL 7'S. 1 POINT FOR EACH CORRECT.", "MMSE", "ATTENTION AND CALCULATI", "5", "", "5", 5, "", "", "", "", "", 1.0, "SCREENING 1", -7, "TREATMENT", "2014-01-19", -3], [401, "CDISCPILOT01", "QS", "01-704-1074", 2005, "MMITM05", "ASK FOR THE 3 OBJECTS REPEATED ABOVE.", "MMSE", "RECALL", "0", "", "0", 0, "", "", "", "", "", 1.0, "SCREENING 1", -7, "TREATMENT", "2014-01-19", -3], [402, "CDISCPILOT01", "QS", "01-704-1074", 2006, "MMITM06", "NAME A PENCIL, AND WATCH (2 POINTS)", "MMSE", "LANGUAGE", "7", "", "7", 7, "", "", "", "", "", 1.0, "SCREENING 1", -7, "TREATMENT", "2014-01-19", -3], [403, "CDISCPILOT01", "QS", "01-704-1093", 2001, "MMITM01", "WHAT IS THE (YEAR) (SEASON) (DATE) ?", "MMSE", "ORIENTATION", "2", "", "2", 2, "", "", "", "", "", 1.0, "SCREENING 1", -7, "TREATMENT", "2013-02-22", -21], [404, "CDISCPILOT01", "QS", "01-704-1093", 2002, "MMITM02", "WHERE ARE WE: (STATE) (COUNTRY) (TOWN) ?", "MMSE", "ORIENTATION", "0", "", "0", 0, "", "", "", "", "", 1.0, "SCREENING 1", -7, "TREATMENT", "2013-02-22", -21], [405, "CDISCPILOT01", "QS", "01-704-1093", 2003, "MMITM03", "NAME 3 OBJECTS: 1 SECOND TO SAY EACH.", "MMSE", "REGISTRATION", "3", "", "3", 3, "", "", "", "", "", 1.0, "SCREENING 1", -7, "TREATMENT", "2013-02-22", -21], [406, "CDISCPILOT01", "QS", "01-704-1093", 2004, "MMITM04", "SERIAL 7'S. 1 POINT FOR EACH CORRECT.", "MMSE", "ATTENTION AND CALCULATI", "5", "", "5", 5, "", "", "", "", "", 1.0, "SCREENING 1", -7, "TREATMENT", "2013-02-22", -21], [407, "CDISCPILOT01", "QS", "01-704-1093", 2005, "MMITM05", "ASK FOR THE 3 OBJECTS REPEATED ABOVE.", "MMSE", "RECALL", "0", "", "0", 0, "", "", "", "", "", 1.0, "SCREENING 1", -7, "TREATMENT", "2013-02-22", -21], [408, "CDISCPILOT01", "QS", "01-704-1093", 2006, "MMITM06", "NAME A PENCIL, AND WATCH (2 POINTS)", "MMSE", "LANGUAGE", "8", "", "8", 8, "", "", "", "", "", 1.0, "SCREENING 1", -7, "TREATMENT", "2013-02-22", -21], [409, "CDISCPILOT01", "QS", "01-704-1114", 2001, "MMITM01", "WHAT IS THE (YEAR) (SEASON) (DATE) ?", "MMSE", "ORIENTATION", "2", "", "2", 2, "", "", "", "", "", 1.0, "SCREENING 1", -7, "TREATMENT", "2013-01-09", -14], [410, "CDISCPILOT01", "QS", "01-704-1114", 2002, "MMITM02", "WHERE ARE WE: (STATE) (COUNTRY) (TOWN) ?", "MMSE", "ORIENTATION", "2", "", "2", 2, "", "", "", "", "", 1.0, "SCREENING 1", -7, "TREATMENT", "2013-01-09", -14], [411, "CDISCPILOT01", "QS", "01-704-1114", 2003, "MMITM03", "NAME 3 OBJECTS: 1 SECOND TO SAY EACH.", "MMSE", "REGISTRATION", "3", "", "3", 3, "", "", "", "", "", 1.0, "SCREENING 1", -7, "TREATMENT", "2013-01-09", -14], [412, "CDISCPILOT01", "QS", "01-704-1114", 2004, "MMITM04", "SERIAL 7'S. 1 POINT FOR EACH CORRECT.", "MMSE", "ATTENTION AND CALCULATI", "5", "", "5", 5, "", "", "", "", "", 1.0, "SCREENING 1", -7, "TREATMENT", "2013-01-09", -14], [413, "CDISCPILOT01", "QS", "01-704-1114", 2005, "MMITM05", "ASK FOR THE 3 OBJECTS REPEATED ABOVE.", "MMSE", "RECALL", "0", "", "0", 0, "", "", "", "", "", 1.0, "SCREENING 1", -7, "TREATMENT", "2013-01-09", -14], [414, "CDISCPILOT01", "QS", "01-704-1114", 2006, "MMITM06", "NAME A PENCIL, AND WATCH (2 POINTS)", "MMSE", "LANGUAGE", "8", "", "8", 8, "", "", "", "", "", 1.0, "SCREENING 1", -7, "TREATMENT", "2013-01-09", -14], [415, "CDISCPILOT01", "QS", "01-704-1120", 2001, "MMITM01", "WHAT IS THE (YEAR) (SEASON) (DATE) ?", "MMSE", "ORIENTATION", "2", "", "2", 2, "", "", "", "", "", 1.0, "SCREENING 1", -7, "TREATMENT", "2013-11-18", -14], [416, "CDISCPILOT01", "QS", "01-704-1120", 2002, "MMITM02", "WHERE ARE WE: (STATE) (COUNTRY) (TOWN) ?", "MMSE", "ORIENTATION", "2", "", "2", 2, "", "", "", "", "", 1.0, "SCREENING 1", -7, "TREATMENT", "2013-11-18", -14], [417, "CDISCPILOT01", "QS", "01-704-1120", 2003, "MMITM03", "NAME 3 OBJECTS: 1 SECOND TO SAY EACH.", "MMSE", "REGISTRATION", "3", "", "3", 3, "", "", "", "", "", 1.0, "SCREENING 1", -7, "TREATMENT", "2013-11-18", -14], [418, "CDISCPILOT01", "QS", "01-704-1120", 2004, "MMITM04", "SERIAL 7'S. 1 POINT FOR EACH CORRECT.", "MMSE", "ATTENTION AND CALCULATI", "3", "", "3", 3, "", "", "", "", "", 1.0, "SCREENING 1", -7, "TREATMENT", "2013-11-18", -14], [419, "CDISCPILOT01", "QS", "01-704-1120", 2005, "MMITM05", "ASK FOR THE 3 OBJECTS REPEATED ABOVE.", "MMSE", "RECALL", "0", "", "0", 0, "", "", "", "", "", 1.0, "SCREENING 1", -7, "TREATMENT", "2013-11-18", -14], [420, "CDISCPILOT01", "QS", "01-704-1120", 2006, "MMITM06", "NAME A PENCIL, AND WATCH (2 POINTS)", "MMSE", "LANGUAGE", "6", "", "6", 6, "", "", "", "", "", 1.0, "SCREENING 1", -7, "TREATMENT", "2013-11-18", -14], [421, "CDISCPILOT01", "QS", "01-704-1127", 2001, "MMITM01", "WHAT IS THE (YEAR) (SEASON) (DATE) ?", "MMSE", "ORIENTATION", "2", "", "2", 2, "", "", "", "", "", 1.0, "SCREENING 1", -7, "TREATMENT", "2013-09-16", -16], [422, "CDISCPILOT01", "QS", "01-704-1127", 2002, "MMITM02", "WHERE ARE WE: (STATE) (COUNTRY) (TOWN) ?", "MMSE", "ORIENTATION", "3", "", "3", 3, "", "", "", "", "", 1.0, "SCREENING 1", -7, "TREATMENT", "2013-09-16", -16], [423, "CDISCPILOT01", "QS", "01-704-1127", 2003, "MMITM03", "NAME 3 OBJECTS: 1 SECOND TO SAY EACH.", "MMSE", "REGISTRATION", "3", "", "3", 3, "", "", "", "", "", 1.0, "SCREENING 1", -7, "TREATMENT", "2013-09-16", -16], [424, "CDISCPILOT01", "QS", "01-704-1127", 2004, "MMITM04", "SERIAL 7'S. 1 POINT FOR EACH CORRECT.", "MMSE", "ATTENTION AND CALCULATI", "5", "", "5", 5, "", "", "", "", "", 1.0, "SCREENING 1", -7, "TREATMENT", "2013-09-16", -16], [425, "CDISCPILOT01", "QS", "01-704-1127", 2005, "MMITM05", "ASK FOR THE 3 OBJECTS REPEATED ABOVE.", "MMSE", "RECALL", "0", "", "0", 0, "", "", "", "", "", 1.0, "SCREENING 1", -7, "TREATMENT", "2013-09-16", -16], [426, "CDISCPILOT01", "QS", "01-704-1127", 2006, "MMITM06", "NAME A PENCIL, AND WATCH (2 POINTS)", "MMSE", "LANGUAGE", "9", "", "9", 9, "", "", "", "", "", 1.0, "SCREENING 1", -7, "TREATMENT", "2013-09-16", -16], [427, "CDISCPILOT01", "QS", "01-704-1135", 2001, "MMITM01", "WHAT IS THE (YEAR) (SEASON) (DATE) ?", "MMSE", "ORIENTATION", "3", "", "3", 3, "", "", "", "", "", 1.0, "SCREENING 1", -7, "TREATMENT", "2013-10-23", -8], [428, "CDISCPILOT01", "QS", "01-704-1135", 2002, "MMITM02", "WHERE ARE WE: (STATE) (COUNTRY) (TOWN) ?", "MMSE", "ORIENTATION", "4", "", "4", 4, "", "", "", "", "", 1.0, "SCREENING 1", -7, "TREATMENT", "2013-10-23", -8], [429, "CDISCPILOT01", "QS", "01-704-1135", 2003, "MMITM03", "NAME 3 OBJECTS: 1 SECOND TO SAY EACH.", "MMSE", "REGISTRATION", "3", "", "3", 3, "", "", "", "", "", 1.0, "SCREENING 1", -7, "TREATMENT", "2013-10-23", -8], [430, "CDISCPILOT01", "QS", "01-704-1135", 2004, "MMITM04", "SERIAL 7'S. 1 POINT FOR EACH CORRECT.", "MMSE", "ATTENTION AND CALCULATI", "5", "", "5", 5, "", "", "", "", "", 1.0, "SCREENING 1", -7, "TREATMENT", "2013-10-23", -8], [431, "CDISCPILOT01", "QS", "01-704-1135", 2005, "MMITM05", "ASK FOR THE 3 OBJECTS REPEATED ABOVE.", "MMSE", "RECALL", "0", "", "0", 0, "", "", "", "", "", 1.0, "SCREENING 1", -7, "TREATMENT", "2013-10-23", -8], [432, "CDISCPILOT01", "QS", "01-704-1135", 2006, "MMITM06", "NAME A PENCIL, AND WATCH (2 POINTS)", "MMSE", "LANGUAGE", "8", "", "8", 8, "", "", "", "", "", 1.0, "SCREENING 1", -7, "TREATMENT", "2013-10-23", -8], [433, "CDISCPILOT01", "QS", "01-704-1164", 2001, "MMITM01", "WHAT IS THE (YEAR) (SEASON) (DATE) ?", "MMSE", "ORIENTATION", "0", "", "0", 0, "", "", "", "", "", 1.0, "SCREENING 1", -7, "TREATMENT", "2012-09-11", -8], [434, "CDISCPILOT01", "QS", "01-704-1164", 2002, "MMITM02", "WHERE ARE WE: (STATE) (COUNTRY) (TOWN) ?", "MMSE", "ORIENTATION", "2", "", "2", 2, "", "", "", "", "", 1.0, "SCREENING 1", -7, "TREATMENT", "2012-09-11", -8], [435, "CDISCPILOT01", "QS", "01-704-1164", 2003, "MMITM03", "NAME 3 OBJECTS: 1 SECOND TO SAY EACH.", "MMSE", "REGISTRATION", "3", "", "3", 3, "", "", "", "", "", 1.0, "SCREENING 1", -7, "TREATMENT", "2012-09-11", -8], [436, "CDISCPILOT01", "QS", "01-704-1164", 2004, "MMITM04", "SERIAL 7'S. 1 POINT FOR EACH CORRECT.", "MMSE", "ATTENTION AND CALCULATI", "4", "", "4", 4, "", "", "", "", "", 1.0, "SCREENING 1", -7, "TREATMENT", "2012-09-11", -8], [437, "CDISCPILOT01", "QS", "01-704-1164", 2005, "MMITM05", "ASK FOR THE 3 OBJECTS REPEATED ABOVE.", "MMSE", "RECALL", "0", "", "0", 0, "", "", "", "", "", 1.0, "SCREENING 1", -7, "TREATMENT", "2012-09-11", -8], [438, "CDISCPILOT01", "QS", "01-704-1164", 2006, "MMITM06", "NAME A PENCIL, AND WATCH (2 POINTS)", "MMSE", "LANGUAGE", "7", "", "7", 7, "", "", "", "", "", 1.0, "SCREENING 1", -7, "TREATMENT", "2012-09-11", -8], [439, "CDISCPILOT01", "QS", "01-704-1218", 2001, "MMITM01", "WHAT IS THE (YEAR) (SEASON) (DATE) ?", "MMSE", "ORIENTATION", "4", "", "4", 4, "", "", "", "", "", 1.0, "SCREENING 1", -7, "TREATMENT", "2012-11-11", -8], [440, "CDISCPILOT01", "QS", "01-704-1218", 2002, "MMITM02", "WHERE ARE WE: (STATE) (COUNTRY) (TOWN) ?", "MMSE", "ORIENTATION", "3", "", "3", 3, "", "", "", "", "", 1.0, "SCREENING 1", -7, "TREATMENT", "2012-11-11", -8], [441, "CDISCPILOT01", "QS", "01-704-1218", 2003, "MMITM03", "NAME 3 OBJECTS: 1 SECOND TO SAY EACH.", "MMSE", "REGISTRATION", "2", "", "2", 2, "", "", "", "", "", 1.0, "SCREENING 1", -7, "TREATMENT", "2012-11-11", -8], [442, "CDISCPILOT01", "QS", "01-704-1218", 2004, "MMITM04", "SERIAL 7'S. 1 POINT FOR EACH CORRECT.", "MMSE", "ATTENTION AND CALCULATI", "4", "", "4", 4, "", "", "", "", "", 1.0, "SCREENING 1", -7, "TREATMENT", "2012-11-11", -8], [443, "CDISCPILOT01", "QS", "01-704-1218", 2005, "MMITM05", "ASK FOR THE 3 OBJECTS REPEATED ABOVE.", "MMSE", "RECALL", "0", "", "0", 0, "", "", "", "", "", 1.0, "SCREENING 1", -7, "TREATMENT", "2012-11-11", -8], [444, "CDISCPILOT01", "QS", "01-704-1218", 2006, "MMITM06", "NAME A PENCIL, AND WATCH (2 POINTS)", "MMSE", "LANGUAGE", "9", "", "9", 9, "", "", "", "", "", 1.0, "SCREENING 1", -7, "TREATMENT", "2012-11-11", -8], [445, "CDISCPILOT01", "QS", "01-704-1233", 2001, "MMITM01", "WHAT IS THE (YEAR) (SEASON) (DATE) ?", "MMSE", "ORIENTATION", "1", "", "1", 1, "", "", "", "", "", 1.0, "SCREENING 1", -7, "TREATMENT", "2013-03-08", -13], [446, "CDISCPILOT01", "QS", "01-704-1233", 2002, "MMITM02", "WHERE ARE WE: (STATE) (COUNTRY) (TOWN) ?", "MMSE", "ORIENTATION", "0", "", "0", 0, "", "", "", "", "", 1.0, "SCREENING 1", -7, "TREATMENT", "2013-03-08", -13], [447, "CDISCPILOT01", "QS", "01-704-1233", 2003, "MMITM03", "NAME 3 OBJECTS: 1 SECOND TO SAY EACH.", "MMSE", "REGISTRATION", "1", "", "1", 1, "", "", "", "", "", 1.0, "SCREENING 1", -7, "TREATMENT", "2013-03-08", -13], [448, "CDISCPILOT01", "QS", "01-704-1233", 2004, "MMITM04", "SERIAL 7'S. 1 POINT FOR EACH CORRECT.", "MMSE", "ATTENTION AND CALCULATI", "5", "", "5", 5, "", "", "", "", "", 1.0, "SCREENING 1", -7, "TREATMENT", "2013-03-08", -13], [449, "CDISCPILOT01", "QS", "01-704-1233", 2005, "MMITM05", "ASK FOR THE 3 OBJECTS REPEATED ABOVE.", "MMSE", "RECALL", "0", "", "0", 0, "", "", "", "", "", 1.0, "SCREENING 1", -7, "TREATMENT", "2013-03-08", -13], [450, "CDISCPILOT01", "QS", "01-704-1233", 2006, "MMITM06", "NAME A PENCIL, AND WATCH (2 POINTS)", "MMSE", "LANGUAGE", "8", "", "8", 8, "", "", "", "", "", 1.0, "SCREENING 1", -7, "TREATMENT", "2013-03-08", -13], [451, "CDISCPILOT01", "QS", "01-704-1241", 2001, "MMITM01", "WHAT IS THE (YEAR) (SEASON) (DATE) ?", "MMSE", "ORIENTATION", "2", "", "2", 2, "", "", "", "", "", 1.0, "SCREENING 1", -7, "TREATMENT", "2013-08-14", -11], [452, "CDISCPILOT01", "QS", "01-704-1241", 2002, "MMITM02", "WHERE ARE WE: (STATE) (COUNTRY) (TOWN) ?", "MMSE", "ORIENTATION", "5", "", "5", 5, "", "", "", "", "", 1.0, "SCREENING 1", -7, "TREATMENT", "2013-08-14", -11], [453, "CDISCPILOT01", "QS", "01-704-1241", 2003, "MMITM03", "NAME 3 OBJECTS: 1 SECOND TO SAY EACH.", "MMSE", "REGISTRATION", "3", "", "3", 3, "", "", "", "", "", 1.0, "SCREENING 1", -7, "TREATMENT", "2013-08-14", -11], [454, "CDISCPILOT01", "QS", "01-704-1241", 2004, "MMITM04", "SERIAL 7'S. 1 POINT FOR EACH CORRECT.", "MMSE", "ATTENTION AND CALCULATI", "5", "", "5", 5, "", "", "", "", "", 1.0, "SCREENING 1", -7, "TREATMENT", "2013-08-14", -11], [455, "CDISCPILOT01", "QS", "01-704-1241", 2005, "MMITM05", "ASK FOR THE 3 OBJECTS REPEATED ABOVE.", "MMSE", "RECALL", "0", "", "0", 0, "", "", "", "", "", 1.0, "SCREENING 1", -7, "TREATMENT", "2013-08-14", -11], [456, "CDISCPILOT01", "QS", "01-704-1241", 2006, "MMITM06", "NAME A PENCIL, AND WATCH (2 POINTS)", "MMSE", "LANGUAGE", "6", "", "6", 6, "", "", "", "", "", 1.0, "SCREENING 1", -7, "TREATMENT", "2013-08-14", -11], [457, "CDISCPILOT01", "QS", "01-704-1260", 2001, "MMITM01", "WHAT IS THE (YEAR) (SEASON) (DATE) ?", "MMSE", "ORIENTATION", "0", "", "0", 0, "", "", "", "", "", 1.0, "SCREENING 1", -7, "TREATMENT", "2012-08-23", -7], [458, "CDISCPILOT01", "QS", "01-704-1260", 2002, "MMITM02", "WHERE ARE WE: (STATE) (COUNTRY) (TOWN) ?", "MMSE", "ORIENTATION", "1", "", "1", 1, "", "", "", "", "", 1.0, "SCREENING 1", -7, "TREATMENT", "2012-08-23", -7], [459, "CDISCPILOT01", "QS", "01-704-1260", 2003, "MMITM03", "NAME 3 OBJECTS: 1 SECOND TO SAY EACH.", "MMSE", "REGISTRATION", "3", "", "3", 3, "", "", "", "", "", 1.0, "SCREENING 1", -7, "TREATMENT", "2012-08-23", -7], [460, "CDISCPILOT01", "QS", "01-704-1260", 2004, "MMITM04", "SERIAL 7'S. 1 POINT FOR EACH CORRECT.", "MMSE", "ATTENTION AND CALCULATI", "3", "", "3", 3, "", "", "", "", "", 1.0, "SCREENING 1", -7, "TREATMENT", "2012-08-23", -7], [461, "CDISCPILOT01", "QS", "01-704-1260", 2005, "MMITM05", "ASK FOR THE 3 OBJECTS REPEATED ABOVE.", "MMSE", "RECALL", "0", "", "0", 0, "", "", "", "", "", 1.0, "SCREENING 1", -7, "TREATMENT", "2012-08-23", -7], [462, "CDISCPILOT01", "QS", "01-704-1260", 2006, "MMITM06", "NAME A PENCIL, AND WATCH (2 POINTS)", "MMSE", "LANGUAGE", "9", "", "9", 9, "", "", "", "", "", 1.0, "SCREENING 1", -7, "TREATMENT", "2012-08-23", -7], [463, "CDISCPILOT01", "QS", "01-704-1266", 2001, "MMITM01", "WHAT IS THE (YEAR) (SEASON) (DATE) ?", "MMSE", "ORIENTATION", "1", "", "1", 1, "", "", "", "", "", 1.0, "SCREENING 1", -7, "TREATMENT", "2013-10-05", -8], [464, "CDISCPILOT01", "QS", "01-704-1266", 2002, "MMITM02", "WHERE ARE WE: (STATE) (COUNTRY) (TOWN) ?", "MMSE", "ORIENTATION", "3", "", "3", 3, "", "", "", "", "", 1.0, "SCREENING 1", -7, "TREATMENT", "2013-10-05", -8], [465, "CDISCPILOT01", "QS", "01-704-1266", 2003, "MMITM03", "NAME 3 OBJECTS: 1 SECOND TO SAY EACH.", "MMSE", "REGISTRATION", "2", "", "2", 2, "", "", "", "", "", 1.0, "SCREENING 1", -7, "TREATMENT", "2013-10-05", -8], [466, "CDISCPILOT01", "QS", "01-704-1266", 2004, "MMITM04", "SERIAL 7'S. 1 POINT FOR EACH CORRECT.", "MMSE", "ATTENTION AND CALCULATI", "5", "", "5", 5, "", "", "", "", "", 1.0, "SCREENING 1", -7, "TREATMENT", "2013-10-05", -8], [467, "CDISCPILOT01", "QS", "01-704-1266", 2005, "MMITM05", "ASK FOR THE 3 OBJECTS REPEATED ABOVE.", "MMSE", "RECALL", "0", "", "0", 0, "", "", "", "", "", 1.0, "SCREENING 1", -7, "TREATMENT", "2013-10-05", -8], [468, "CDISCPILOT01", "QS", "01-704-1266", 2006, "MMITM06", "NAME A PENCIL, AND WATCH (2 POINTS)", "MMSE", "LANGUAGE", "5", "", "5", 5, "", "", "", "", "", 1.0, "SCREENING 1", -7, "TREATMENT", "2013-10-05", -8], [469, "CDISCPILOT01", "QS", "01-704-1323", 2001, "MMITM01", "WHAT IS THE (YEAR) (SEASON) (DATE) ?", "MMSE", "ORIENTATION", "2", "", "2", 2, "", "", "", "", "", 1.0, "SCREENING 1", -7, "TREATMENT", "2013-06-13", -25], [470, "CDISCPILOT01", "QS", "01-704-1323", 2002, "MMITM02", "WHERE ARE WE: (STATE) (COUNTRY) (TOWN) ?", "MMSE", "ORIENTATION", "5", "", "5", 5, "", "", "", "", "", 1.0, "SCREENING 1", -7, "TREATMENT", "2013-06-13", -25], [471, "CDISCPILOT01", "QS", "01-704-1323", 2003, "MMITM03", "NAME 3 OBJECTS: 1 SECOND TO SAY EACH.", "MMSE", "REGISTRATION", "3", "", "3", 3, "", "", "", "", "", 1.0, "SCREENING 1", -7, "TREATMENT", "2013-06-13", -25], [472, "CDISCPILOT01", "QS", "01-704-1323", 2004, "MMITM04", "SERIAL 7'S. 1 POINT FOR EACH CORRECT.", "MMSE", "ATTENTION AND CALCULATI", "5", "", "5", 5, "", "", "", "", "", 1.0, "SCREENING 1", -7, "TREATMENT", "2013-06-13", -25], [473, "CDISCPILOT01", "QS", "01-704-1323", 2005, "MMITM05", "ASK FOR THE 3 OBJECTS REPEATED ABOVE.", "MMSE", "RECALL", "0", "", "0", 0, "", "", "", "", "", 1.0, "SCREENING 1", -7, "TREATMENT", "2013-06-13", -25], [474, "CDISCPILOT01", "QS", "01-704-1323", 2006, "MMITM06", "NAME A PENCIL, AND WATCH (2 POINTS)", "MMSE", "LANGUAGE", "8", "", "8", 8, "", "", "", "", "", 1.0, "SCREENING 1", -7, "TREATMENT", "2013-06-13", -25], [475, "CDISCPILOT01", "QS", "01-704-1325", 2001, "MMITM01", "WHAT IS THE (YEAR) (SEASON) (DATE) ?", "MMSE", "ORIENTATION", "2", "", "2", 2, "", "", "", "", "", 1.0, "SCREENING 1", -7, "TREATMENT", "2014-04-16", -7], [476, "CDISCPILOT01", "QS", "01-704-1325", 2002, "MMITM02", "WHERE ARE WE: (STATE) (COUNTRY) (TOWN) ?", "MMSE", "ORIENTATION", "3", "", "3", 3, "", "", "", "", "", 1.0, "SCREENING 1", -7, "TREATMENT", "2014-04-16", -7], [477, "CDISCPILOT01", "QS", "01-704-1325", 2003, "MMITM03", "NAME 3 OBJECTS: 1 SECOND TO SAY EACH.", "MMSE", "REGISTRATION", "3", "", "3", 3, "", "", "", "", "", 1.0, "SCREENING 1", -7, "TREATMENT", "2014-04-16", -7], [478, "CDISCPILOT01", "QS", "01-704-1325", 2004, "MMITM04", "SERIAL 7'S. 1 POINT FOR EACH CORRECT.", "MMSE", "ATTENTION AND CALCULATI", "4", "", "4", 4, "", "", "", "", "", 1.0, "SCREENING 1", -7, "TREATMENT", "2014-04-16", -7], [479, "CDISCPILOT01", "QS", "01-704-1325", 2005, "MMITM05", "ASK FOR THE 3 OBJECTS REPEATED ABOVE.", "MMSE", "RECALL", "0", "", "0", 0, "", "", "", "", "", 1.0, "SCREENING 1", -7, "TREATMENT", "2014-04-16", -7], [480, "CDISCPILOT01", "QS", "01-704-1325", 2006, "MMITM06", "NAME A PENCIL, AND WATCH (2 POINTS)", "MMSE", "LANGUAGE", "6", "", "6", 6, "", "", "", "", "", 1.0, "SCREENING 1", -7, "TREATMENT", "2014-04-16", -7], [481, "CDISCPILOT01", "QS", "01-704-1332", 2001, "MMITM01", "WHAT IS THE (YEAR) (SEASON) (DATE) ?", "MMSE", "ORIENTATION", "5", "", "5", 5, "", "", "", "", "", 1.0, "SCREENING 1", -7, "TREATMENT", "2013-11-24", -15], [482, "CDISCPILOT01", "QS", "01-704-1332", 2002, "MMITM02", "WHERE ARE WE: (STATE) (COUNTRY) (TOWN) ?", "MMSE", "ORIENTATION", "2", "", "2", 2, "", "", "", "", "", 1.0, "SCREENING 1", -7, "TREATMENT", "2013-11-24", -15], [483, "CDISCPILOT01", "QS", "01-704-1332", 2003, "MMITM03", "NAME 3 OBJECTS: 1 SECOND TO SAY EACH.", "MMSE", "REGISTRATION", "3", "", "3", 3, "", "", "", "", "", 1.0, "SCREENING 1", -7, "TREATMENT", "2013-11-24", -15], [484, "CDISCPILOT01", "QS", "01-704-1332", 2004, "MMITM04", "SERIAL 7'S. 1 POINT FOR EACH CORRECT.", "MMSE", "ATTENTION AND CALCULATI", "4", "", "4", 4, "", "", "", "", "", 1.0, "SCREENING 1", -7, "TREATMENT", "2013-11-24", -15], [485, "CDISCPILOT01", "QS", "01-704-1332", 2005, "MMITM05", "ASK FOR THE 3 OBJECTS REPEATED ABOVE.", "MMSE", "RECALL", "0", "", "0", 0, "", "", "", "", "", 1.0, "SCREENING 1", -7, "TREATMENT", "2013-11-24", -15], [486, "CDISCPILOT01", "QS", "01-704-1332", 2006, "MMITM06", "NAME A PENCIL, AND WATCH (2 POINTS)", "MMSE", "LANGUAGE", "8", "", "8", 8, "", "", "", "", "", 1.0, "SCREENING 1", -7, "TREATMENT", "2013-11-24", -15], [487, "CDISCPILOT01", "QS", "01-704-1351", 2001, "MMITM01", "WHAT IS THE (YEAR) (SEASON) (DATE) ?", "MMSE", "ORIENTATION", "2", "", "2", 2, "", "", "", "", "", 1.0, "SCREENING 1", -7, "TREATMENT", "2013-09-26", -16], [488, "CDISCPILOT01", "QS", "01-704-1351", 2002, "MMITM02", "WHERE ARE WE: (STATE) (COUNTRY) (TOWN) ?", "MMSE", "ORIENTATION", "4", "", "4", 4, "", "", "", "", "", 1.0, "SCREENING 1", -7, "TREATMENT", "2013-09-26", -16], [489, "CDISCPILOT01", "QS", "01-704-1351", 2003, "MMITM03", "NAME 3 OBJECTS: 1 SECOND TO SAY EACH.", "MMSE", "REGISTRATION", "3", "", "3", 3, "", "", "", "", "", 1.0, "SCREENING 1", -7, "TREATMENT", "2013-09-26", -16], [490, "CDISCPILOT01", "QS", "01-704-1351", 2004, "MMITM04", "SERIAL 7'S. 1 POINT FOR EACH CORRECT.", "MMSE", "ATTENTION AND CALCULATI", "4", "", "4", 4, "", "", "", "", "", 1.0, "SCREENING 1", -7, "TREATMENT", "2013-09-26", -16], [491, "CDISCPILOT01", "QS", "01-704-1351", 2005, "MMITM05", "ASK FOR THE 3 OBJECTS REPEATED ABOVE.", "MMSE", "RECALL", "0", "", "0", 0, "", "", "", "", "", 1.0, "SCREENING 1", -7, "TREATMENT", "2013-09-26", -16], [492, "CDISCPILOT01", "QS", "01-704-1351", 2006, "MMITM06", "NAME A PENCIL, AND WATCH (2 POINTS)", "MMSE", "LANGUAGE", "9", "", "9", 9, "", "", "", "", "", 1.0, "SCREENING 1", -7, "TREATMENT", "2013-09-26", -16], [493, "CDISCPILOT01", "QS", "01-704-1388", 2001, "MMITM01", "WHAT IS THE (YEAR) (SEASON) (DATE) ?", "MMSE", "ORIENTATION", "1", "", "1", 1, "", "", "", "", "", 1.0, "SCREENING 1", -7, "TREATMENT", "2012-11-28", -9], [494, "CDISCPILOT01", "QS", "01-704-1388", 2002, "MMITM02", "WHERE ARE WE: (STATE) (COUNTRY) (TOWN) ?", "MMSE", "ORIENTATION", "4", "", "4", 4, "", "", "", "", "", 1.0, "SCREENING 1", -7, "TREATMENT", "2012-11-28", -9], [495, "CDISCPILOT01", "QS", "01-704-1388", 2003, "MMITM03", "NAME 3 OBJECTS: 1 SECOND TO SAY EACH.", "MMSE", "REGISTRATION", "2", "", "2", 2, "", "", "", "", "", 1.0, "SCREENING 1", -7, "TREATMENT", "2012-11-28", -9], [496, "CDISCPILOT01", "QS", "01-704-1388", 2004, "MMITM04", "SERIAL 7'S. 1 POINT FOR EACH CORRECT.", "MMSE", "ATTENTION AND CALCULATI", "5", "", "5", 5, "", "", "", "", "", 1.0, "SCREENING 1", -7, "TREATMENT", "2012-11-28", -9], [497, "CDISCPILOT01", "QS", "01-704-1388", 2005, "MMITM05", "ASK FOR THE 3 OBJECTS REPEATED ABOVE.", "MMSE", "RECALL", "0", "", "0", 0, "", "", "", "", "", 1.0, "SCREENING 1", -7, "TREATMENT", "2012-11-28", -9], [498, "CDISCPILOT01", "QS", "01-704-1388", 2006, "MMITM06", "NAME A PENCIL, AND WATCH (2 POINTS)", "MMSE", "LANGUAGE", "8", "", "8", 8, "", "", "", "", "", 1.0, "SCREENING 1", -7, "TREATMENT", "2012-11-28", -9], [499, "CDISCPILOT01", "QS", "01-704-1435", 2001, "MMITM01", "WHAT IS THE (YEAR) (SEASON) (DATE) ?", "MMSE", "ORIENTATION", "4", "", "4", 4, "", "", "", "", "", 1.0, "SCREENING 1", -7, "TREATMENT", "2012-11-01", -16], [500, "CDISCPILOT01", "QS", "01-704-1435", 2002, "MMITM02", "WHERE ARE WE: (STATE) (COUNTRY) (TOWN) ?", "MMSE", "ORIENTATION", "2", "", "2", 2, "", "", "", "", "", 1.0, "SCREENING 1", -7, "TREATMENT", "2012-11-01", -16], [501, "CDISCPILOT01", "QS", "01-704-1435", 2003, "MMITM03", "NAME 3 OBJECTS: 1 SECOND TO SAY EACH.", "MMSE", "REGISTRATION", "3", "", "3", 3, "", "", "", "", "", 1.0, "SCREENING 1", -7, "TREATMENT", "2012-11-01", -16], [502, "CDISCPILOT01", "QS", "01-704-1435", 2004, "MMITM04", "SERIAL 7'S. 1 POINT FOR EACH CORRECT.", "MMSE", "ATTENTION AND CALCULATI", "5", "", "5", 5, "", "", "", "", "", 1.0, "SCREENING 1", -7, "TREATMENT", "2012-11-01", -16], [503, "CDISCPILOT01", "QS", "01-704-1435", 2005, "MMITM05", "ASK FOR THE 3 OBJECTS REPEATED ABOVE.", "MMSE", "RECALL", "1", "", "1", 1, "", "", "", "", "", 1.0, "SCREENING 1", -7, "TREATMENT", "2012-11-01", -16], [504, "CDISCPILOT01", "QS", "01-704-1435", 2006, "MMITM06", "NAME A PENCIL, AND WATCH (2 POINTS)", "MMSE", "LANGUAGE", "5", "", "5", 5, "", "", "", "", "", 1.0, "SCREENING 1", -7, "TREATMENT", "2012-11-01", -16], [505, "CDISCPILOT01", "QS", "01-704-1445", 2001, "MMITM01", "WHAT IS THE (YEAR) (SEASON) (DATE) ?", "MMSE", "ORIENTATION", "3", "", "3", 3, "", "", "", "", "", 1.0, "SCREENING 1", -7, "TREATMENT", "2014-05-01", -10], [506, "CDISCPILOT01", "QS", "01-704-1445", 2002, "MMITM02", "WHERE ARE WE: (STATE) (COUNTRY) (TOWN) ?", "MMSE", "ORIENTATION", "3", "", "3", 3, "", "", "", "", "", 1.0, "SCREENING 1", -7, "TREATMENT", "2014-05-01", -10], [507, "CDISCPILOT01", "QS", "01-704-1445", 2003, "MMITM03", "NAME 3 OBJECTS: 1 SECOND TO SAY EACH.", "MMSE", "REGISTRATION", "2", "", "2", 2, "", "", "", "", "", 1.0, "SCREENING 1", -7, "TREATMENT", "2014-05-01", -10], [508, "CDISCPILOT01", "QS", "01-704-1445", 2004, "MMITM04", "SERIAL 7'S. 1 POINT FOR EACH CORRECT.", "MMSE", "ATTENTION AND CALCULATI", "4", "", "4", 4, "", "", "", "", "", 1.0, "SCREENING 1", -7, "TREATMENT", "2014-05-01", -10], [509, "CDISCPILOT01", "QS", "01-704-1445", 2005, "MMITM05", "ASK FOR THE 3 OBJECTS REPEATED ABOVE.", "MMSE", "RECALL", "3", "", "3", 3, "", "", "", "", "", 1.0, "SCREENING 1", -7, "TREATMENT", "2014-05-01", -10], [510, "CDISCPILOT01", "QS", "01-704-1445", 2006, "MMITM06", "NAME A PENCIL, AND WATCH (2 POINTS)", "MMSE", "LANGUAGE", "8", "", "8", 8, "", "", "", "", "", 1.0, "SCREENING 1", -7, "TREATMENT", "2014-05-01", -10], [511, "CDISCPILOT01", "QS", "01-705-1018", 2001, "MMITM01", "WHAT IS THE (YEAR) (SEASON) (DATE) ?", "MMSE", "ORIENTATION", "3", "", "3", 3, "", "", "", "", "", 1.0, "SCREENING 1", -7, "TREATMENT", "2013-06-30", -5], [512, "CDISCPILOT01", "QS", "01-705-1018", 2002, "MMITM02", "WHERE ARE WE: (STATE) (COUNTRY) (TOWN) ?", "MMSE", "ORIENTATION", "4", "", "4", 4, "", "", "", "", "", 1.0, "SCREENING 1", -7, "TREATMENT", "2013-06-30", -5], [513, "CDISCPILOT01", "QS", "01-705-1018", 2003, "MMITM03", "NAME 3 OBJECTS: 1 SECOND TO SAY EACH.", "MMSE", "REGISTRATION", "3", "", "3", 3, "", "", "", "", "", 1.0, "SCREENING 1", -7, "TREATMENT", "2013-06-30", -5], [514, "CDISCPILOT01", "QS", "01-705-1018", 2004, "MMITM04", "SERIAL 7'S. 1 POINT FOR EACH CORRECT.", "MMSE", "ATTENTION AND CALCULATI", "3", "", "3", 3, "", "", "", "", "", 1.0, "SCREENING 1", -7, "TREATMENT", "2013-06-30", -5], [515, "CDISCPILOT01", "QS", "01-705-1018", 2005, "MMITM05", "ASK FOR THE 3 OBJECTS REPEATED ABOVE.", "MMSE", "RECALL", "0", "", "0", 0, "", "", "", "", "", 1.0, "SCREENING 1", -7, "TREATMENT", "2013-06-30", -5], [516, "CDISCPILOT01", "QS", "01-705-1018", 2006, "MMITM06", "NAME A PENCIL, AND WATCH (2 POINTS)", "MMSE", "LANGUAGE", "5", "", "5", 5, "", "", "", "", "", 1.0, "SCREENING 1", -7, "TREATMENT", "2013-06-30", -5], [517, "CDISCPILOT01", "QS", "01-705-1031", 2001, "MMITM01", "WHAT IS THE (YEAR) (SEASON) (DATE) ?", "MMSE", "ORIENTATION", "4", "", "4", 4, "", "", "", "", "", 1.0, "SCREENING 1", -7, "TREATMENT", "2013-11-17", -10], [518, "CDISCPILOT01", "QS", "01-705-1031", 2002, "MMITM02", "WHERE ARE WE: (STATE) (COUNTRY) (TOWN) ?", "MMSE", "ORIENTATION", "4", "", "4", 4, "", "", "", "", "", 1.0, "SCREENING 1", -7, "TREATMENT", "2013-11-17", -10], [519, "CDISCPILOT01", "QS", "01-705-1031", 2003, "MMITM03", "NAME 3 OBJECTS: 1 SECOND TO SAY EACH.", "MMSE", "REGISTRATION", "3", "", "3", 3, "", "", "", "", "", 1.0, "SCREENING 1", -7, "TREATMENT", "2013-11-17", -10], [520, "CDISCPILOT01", "QS", "01-705-1031", 2004, "MMITM04", "SERIAL 7'S. 1 POINT FOR EACH CORRECT.", "MMSE", "ATTENTION AND CALCULATI", "0", "", "0", 0, "", "", "", "", "", 1.0, "SCREENING 1", -7, "TREATMENT", "2013-11-17", -10], [521, "CDISCPILOT01", "QS", "01-705-1031", 2005, "MMITM05", "ASK FOR THE 3 OBJECTS REPEATED ABOVE.", "MMSE", "RECALL", "3", "", "3", 3, "", "", "", "", "", 1.0, "SCREENING 1", -7, "TREATMENT", "2013-11-17", -10], [522, "CDISCPILOT01", "QS", "01-705-1031", 2006, "MMITM06", "NAME A PENCIL, AND WATCH (2 POINTS)", "MMSE", "LANGUAGE", "9", "", "9", 9, "", "", "", "", "", 1.0, "SCREENING 1", -7, "TREATMENT", "2013-11-17", -10], [523, "CDISCPILOT01", "QS", "01-705-1059", 2001, "MMITM01", "WHAT IS THE (YEAR) (SEASON) (DATE) ?", "MMSE", "ORIENTATION", "0", "", "0", 0, "", "", "", "", "", 1.0, "SCREENING 1", -7, "TREATMENT", "2013-08-02", -3], [524, "CDISCPILOT01", "QS", "01-705-1059", 2002, "MMITM02", "WHERE ARE WE: (STATE) (COUNTRY) (TOWN) ?", "MMSE", "ORIENTATION", "4", "", "4", 4, "", "", "", "", "", 1.0, "SCREENING 1", -7, "TREATMENT", "2013-08-02", -3], [525, "CDISCPILOT01", "QS", "01-705-1059", 2003, "MMITM03", "NAME 3 OBJECTS: 1 SECOND TO SAY EACH.", "MMSE", "REGISTRATION", "3", "", "3", 3, "", "", "", "", "", 1.0, "SCREENING 1", -7, "TREATMENT", "2013-08-02", -3], [526, "CDISCPILOT01", "QS", "01-705-1059", 2004, "MMITM04", "SERIAL 7'S. 1 POINT FOR EACH CORRECT.", "MMSE", "ATTENTION AND CALCULATI", "1", "", "1", 1, "", "", "", "", "", 1.0, "SCREENING 1", -7, "TREATMENT", "2013-08-02", -3], [527, "CDISCPILOT01", "QS", "01-705-1059", 2005, "MMITM05", "ASK FOR THE 3 OBJECTS REPEATED ABOVE.", "MMSE", "RECALL", "0", "", "0", 0, "", "", "", "", "", 1.0, "SCREENING 1", -7, "TREATMENT", "2013-08-02", -3], [528, "CDISCPILOT01", "QS", "01-705-1059", 2006, "MMITM06", "NAME A PENCIL, AND WATCH (2 POINTS)", "MMSE", "LANGUAGE", "8", "", "8", 8, "", "", "", "", "", 1.0, "SCREENING 1", -7, "TREATMENT", "2013-08-02", -3], [529, "CDISCPILOT01", "QS", "01-705-1186", 2001, "MMITM01", "WHAT IS THE (YEAR) (SEASON) (DATE) ?", "MMSE", "ORIENTATION", "0", "", "0", 0, "", "", "", "", "", 1.0, "SCREENING 1", -7, "TREATMENT", "2014-01-03", -5], [530, "CDISCPILOT01", "QS", "01-705-1186", 2002, "MMITM02", "WHERE ARE WE: (STATE) (COUNTRY) (TOWN) ?", "MMSE", "ORIENTATION", "2", "", "2", 2, "", "", "", "", "", 1.0, "SCREENING 1", -7, "TREATMENT", "2014-01-03", -5], [531, "CDISCPILOT01", "QS", "01-705-1186", 2003, "MMITM03", "NAME 3 OBJECTS: 1 SECOND TO SAY EACH.", "MMSE", "REGISTRATION", "3", "", "3", 3, "", "", "", "", "", 1.0, "SCREENING 1", -7, "TREATMENT", "2014-01-03", -5], [532, "CDISCPILOT01", "QS", "01-705-1186", 2004, "MMITM04", "SERIAL 7'S. 1 POINT FOR EACH CORRECT.", "MMSE", "ATTENTION AND CALCULATI", "3", "", "3", 3, "", "", "", "", "", 1.0, "SCREENING 1", -7, "TREATMENT", "2014-01-03", -5], [533, "CDISCPILOT01", "QS", "01-705-1186", 2005, "MMITM05", "ASK FOR THE 3 OBJECTS REPEATED ABOVE.", "MMSE", "RECALL", "0", "", "0", 0, "", "", "", "", "", 1.0, "SCREENING 1", -7, "TREATMENT", "2014-01-03", -5], [534, "CDISCPILOT01", "QS", "01-705-1186", 2006, "MMITM06", "NAME A PENCIL, AND WATCH (2 POINTS)", "MMSE", "LANGUAGE", "7", "", "7", 7, "", "", "", "", "", 1.0, "SCREENING 1", -7, "TREATMENT", "2014-01-03", -5], [535, "CDISCPILOT01", "QS", "01-705-1199", 2001, "MMITM01", "WHAT IS THE (YEAR) (SEASON) (DATE) ?", "MMSE", "ORIENTATION", "3", "", "3", 3, "", "", "", "", "", 1.0, "SCREENING 1", -7, "TREATMENT", "2013-09-11", -5], [536, "CDISCPILOT01", "QS", "01-705-1199", 2002, "MMITM02", "WHERE ARE WE: (STATE) (COUNTRY) (TOWN) ?", "MMSE", "ORIENTATION", "4", "", "4", 4, "", "", "", "", "", 1.0, "SCREENING 1", -7, "TREATMENT", "2013-09-11", -5], [537, "CDISCPILOT01", "QS", "01-705-1199", 2003, "MMITM03", "NAME 3 OBJECTS: 1 SECOND TO SAY EACH.", "MMSE", "REGISTRATION", "1", "", "1", 1, "", "", "", "", "", 1.0, "SCREENING 1", -7, "TREATMENT", "2013-09-11", -5], [538, "CDISCPILOT01", "QS", "01-705-1199", 2004, "MMITM04", "SERIAL 7'S. 1 POINT FOR EACH CORRECT.", "MMSE", "ATTENTION AND CALCULATI", "4", "", "4", 4, "", "", "", "", "", 1.0, "SCREENING 1", -7, "TREATMENT", "2013-09-11", -5], [539, "CDISCPILOT01", "QS", "01-705-1199", 2005, "MMITM05", "ASK FOR THE 3 OBJECTS REPEATED ABOVE.", "MMSE", "RECALL", "0", "", "0", 0, "", "", "", "", "", 1.0, "SCREENING 1", -7, "TREATMENT", "2013-09-11", -5], [540, "CDISCPILOT01", "QS", "01-705-1199", 2006, "MMITM06", "NAME A PENCIL, AND WATCH (2 POINTS)", "MMSE", "LANGUAGE", "7", "", "7", 7, "", "", "", "", "", 1.0, "SCREENING 1", -7, "TREATMENT", "2013-09-11", -5], [541, "CDISCPILOT01", "QS", "01-705-1280", 2001, "MMITM01", "WHAT IS THE (YEAR) (SEASON) (DATE) ?", "MMSE", "ORIENTATION", "4", "", "4", 4, "", "", "", "", "", 1.0, "SCREENING 1", -7, "TREATMENT", "2014-01-11", -6], [542, "CDISCPILOT01", "QS", "01-705-1280", 2002, "MMITM02", "WHERE ARE WE: (STATE) (COUNTRY) (TOWN) ?", "MMSE", "ORIENTATION", "4", "", "4", 4, "", "", "", "", "", 1.0, "SCREENING 1", -7, "TREATMENT", "2014-01-11", -6], [543, "CDISCPILOT01", "QS", "01-705-1280", 2003, "MMITM03", "NAME 3 OBJECTS: 1 SECOND TO SAY EACH.", "MMSE", "REGISTRATION", "3", "", "3", 3, "", "", "", "", "", 1.0, "SCREENING 1", -7, "TREATMENT", "2014-01-11", -6], [544, "CDISCPILOT01", "QS", "01-705-1280", 2004, "MMITM04", "SERIAL 7'S. 1 POINT FOR EACH CORRECT.", "MMSE", "ATTENTION AND CALCULATI", "5", "", "5", 5, "", "", "", "", "", 1.0, "SCREENING 1", -7, "TREATMENT", "2014-01-11", -6], [545, "CDISCPILOT01", "QS", "01-705-1280", 2005, "MMITM05", "ASK FOR THE 3 OBJECTS REPEATED ABOVE.", "MMSE", "RECALL", "1", "", "1", 1, "", "", "", "", "", 1.0, "SCREENING 1", -7, "TREATMENT", "2014-01-11", -6], [546, "CDISCPILOT01", "QS", "01-705-1280", 2006, "MMITM06", "NAME A PENCIL, AND WATCH (2 POINTS)", "MMSE", "LANGUAGE", "6", "", "6", 6, "", "", "", "", "", 1.0, "SCREENING 1", -7, "TREATMENT", "2014-01-11", -6], [547, "CDISCPILOT01", "QS", "01-705-1281", 2001, "MMITM01", "WHAT IS THE (YEAR) (SEASON) (DATE) ?", "MMSE", "ORIENTATION", "5", "", "5", 5, "", "", "", "", "", 1.0, "SCREENING 1", -7, "TREATMENT", "2013-11-26", -2], [548, "CDISCPILOT01", "QS", "01-705-1281", 2002, "MMITM02", "WHERE ARE WE: (STATE) (COUNTRY) (TOWN) ?", "MMSE", "ORIENTATION", "3", "", "3", 3, "", "", "", "", "", 1.0, "SCREENING 1", -7, "TREATMENT", "2013-11-26", -2], [549, "CDISCPILOT01", "QS", "01-705-1281", 2003, "MMITM03", "NAME 3 OBJECTS: 1 SECOND TO SAY EACH.", "MMSE", "REGISTRATION", "3", "", "3", 3, "", "", "", "", "", 1.0, "SCREENING 1", -7, "TREATMENT", "2013-11-26", -2], [550, "CDISCPILOT01", "QS", "01-705-1281", 2004, "MMITM04", "SERIAL 7'S. 1 POINT FOR EACH CORRECT.", "MMSE", "ATTENTION AND CALCULATI", "5", "", "5", 5, "", "", "", "", "", 1.0, "SCREENING 1", -7, "TREATMENT", "2013-11-26", -2], [551, "CDISCPILOT01", "QS", "01-705-1281", 2005, "MMITM05", "ASK FOR THE 3 OBJECTS REPEATED ABOVE.", "MMSE", "RECALL", "1", "", "1", 1, "", "", "", "", "", 1.0, "SCREENING 1", -7, "TREATMENT", "2013-11-26", -2], [552, "CDISCPILOT01", "QS", "01-705-1281", 2006, "MMITM06", "NAME A PENCIL, AND WATCH (2 POINTS)", "MMSE", "LANGUAGE", "6", "", "6", 6, "", "", "", "", "", 1.0, "SCREENING 1", -7, "TREATMENT", "2013-11-26", -2], [553, "CDISCPILOT01", "QS", "01-705-1282", 2001, "MMITM01", "WHAT IS THE (YEAR) (SEASON) (DATE) ?", "MMSE", "ORIENTATION", "0", "", "0", 0, "", "", "", "", "", 1.0, "SCREENING 1", -7, "TREATMENT", "2012-12-23", -3], [554, "CDISCPILOT01", "QS", "01-705-1282", 2002, "MMITM02", "WHERE ARE WE: (STATE) (COUNTRY) (TOWN) ?", "MMSE", "ORIENTATION", "0", "", "0", 0, "", "", "", "", "", 1.0, "SCREENING 1", -7, "TREATMENT", "2012-12-23", -3], [555, "CDISCPILOT01", "QS", "01-705-1282", 2003, "MMITM03", "NAME 3 OBJECTS: 1 SECOND TO SAY EACH.", "MMSE", "REGISTRATION", "2", "", "2", 2, "", "", "", "", "", 1.0, "SCREENING 1", -7, "TREATMENT", "2012-12-23", -3], [556, "CDISCPILOT01", "QS", "01-705-1282", 2004, "MMITM04", "SERIAL 7'S. 1 POINT FOR EACH CORRECT.", "MMSE", "ATTENTION AND CALCULATI", "1", "", "1", 1, "", "", "", "", "", 1.0, "SCREENING 1", -7, "TREATMENT", "2012-12-23", -3], [557, "CDISCPILOT01", "QS", "01-705-1282", 2005, "MMITM05", "ASK FOR THE 3 OBJECTS REPEATED ABOVE.", "MMSE", "RECALL", "0", "", "0", 0, "", "", "", "", "", 1.0, "SCREENING 1", -7, "TREATMENT", "2012-12-23", -3], [558, "CDISCPILOT01", "QS", "01-705-1282", 2006, "MMITM06", "NAME A PENCIL, AND WATCH (2 POINTS)", "MMSE", "LANGUAGE", "7", "", "7", 7, "", "", "", "", "", 1.0, "SCREENING 1", -7, "TREATMENT", "2012-12-23", -3], [559, "CDISCPILOT01", "QS", "01-705-1292", 2001, "MMITM01", "WHAT IS THE (YEAR) (SEASON) (DATE) ?", "MMSE", "ORIENTATION", "4", "", "4", 4, "", "", "", "", "", 1.0, "SCREENING 1", -7, "TREATMENT", "2013-10-11", -3], [560, "CDISCPILOT01", "QS", "01-705-1292", 2002, "MMITM02", "WHERE ARE WE: (STATE) (COUNTRY) (TOWN) ?", "MMSE", "ORIENTATION", "4", "", "4", 4, "", "", "", "", "", 1.0, "SCREENING 1", -7, "TREATMENT", "2013-10-11", -3], [561, "CDISCPILOT01", "QS", "01-705-1292", 2003, "MMITM03", "NAME 3 OBJECTS: 1 SECOND TO SAY EACH.", "MMSE", "REGISTRATION", "3", "", "3", 3, "", "", "", "", "", 1.0, "SCREENING 1", -7, "TREATMENT", "2013-10-11", -3], [562, "CDISCPILOT01", "QS", "01-705-1292", 2004, "MMITM04", "SERIAL 7'S. 1 POINT FOR EACH CORRECT.", "MMSE", "ATTENTION AND CALCULATI", "4", "", "4", 4, "", "", "", "", "", 1.0, "SCREENING 1", -7, "TREATMENT", "2013-10-11", -3], [563, "CDISCPILOT01", "QS", "01-705-1292", 2005, "MMITM05", "ASK FOR THE 3 OBJECTS REPEATED ABOVE.", "MMSE", "RECALL", "0", "", "0", 0, "", "", "", "", "", 1.0, "SCREENING 1", -7, "TREATMENT", "2013-10-11", -3], [564, "CDISCPILOT01", "QS", "01-705-1292", 2006, "MMITM06", "NAME A PENCIL, AND WATCH (2 POINTS)", "MMSE", "LANGUAGE", "8", "", "8", 8, "", "", "", "", "", 1.0, "SCREENING 1", -7, "TREATMENT", "2013-10-11", -3], [565, "CDISCPILOT01", "QS", "01-705-1303", 2001, "MMITM01", "WHAT IS THE (YEAR) (SEASON) (DATE) ?", "MMSE", "ORIENTATION", "2", "", "2", 2, "", "", "", "", "", 1.0, "SCREENING 1", -7, "TREATMENT", "2013-12-10", -6], [566, "CDISCPILOT01", "QS", "01-705-1303", 2002, "MMITM02", "WHERE ARE WE: (STATE) (COUNTRY) (TOWN) ?", "MMSE", "ORIENTATION", "4", "", "4", 4, "", "", "", "", "", 1.0, "SCREENING 1", -7, "TREATMENT", "2013-12-10", -6], [567, "CDISCPILOT01", "QS", "01-705-1303", 2003, "MMITM03", "NAME 3 OBJECTS: 1 SECOND TO SAY EACH.", "MMSE", "REGISTRATION", "2", "", "2", 2, "", "", "", "", "", 1.0, "SCREENING 1", -7, "TREATMENT", "2013-12-10", -6], [568, "CDISCPILOT01", "QS", "01-705-1303", 2004, "MMITM04", "SERIAL 7'S. 1 POINT FOR EACH CORRECT.", "MMSE", "ATTENTION AND CALCULATI", "2", "", "2", 2, "", "", "", "", "", 1.0, "SCREENING 1", -7, "TREATMENT", "2013-12-10", -6], [569, "CDISCPILOT01", "QS", "01-705-1303", 2005, "MMITM05", "ASK FOR THE 3 OBJECTS REPEATED ABOVE.", "MMSE", "RECALL", "0", "", "0", 0, "", "", "", "", "", 1.0, "SCREENING 1", -7, "TREATMENT", "2013-12-10", -6], [570, "CDISCPILOT01", "QS", "01-705-1303", 2006, "MMITM06", "NAME A PENCIL, AND WATCH (2 POINTS)", "MMSE", "LANGUAGE", "9", "", "9", 9, "", "", "", "", "", 1.0, "SCREENING 1", -7, "TREATMENT", "2013-12-10", -6], [571, "CDISCPILOT01", "QS", "01-705-1310", 2001, "MMITM01", "WHAT IS THE (YEAR) (SEASON) (DATE) ?", "MMSE", "ORIENTATION", "3", "", "3", 3, "", "", "", "", "", 1.0, "SCREENING 1", -7, "TREATMENT", "2013-10-26", -7], [572, "CDISCPILOT01", "QS", "01-705-1310", 2002, "MMITM02", "WHERE ARE WE: (STATE) (COUNTRY) (TOWN) ?", "MMSE", "ORIENTATION", "2", "", "2", 2, "", "", "", "", "", 1.0, "SCREENING 1", -7, "TREATMENT", "2013-10-26", -7], [573, "CDISCPILOT01", "QS", "01-705-1310", 2003, "MMITM03", "NAME 3 OBJECTS: 1 SECOND TO SAY EACH.", "MMSE", "REGISTRATION", "3", "", "3", 3, "", "", "", "", "", 1.0, "SCREENING 1", -7, "TREATMENT", "2013-10-26", -7], [574, "CDISCPILOT01", "QS", "01-705-1310", 2004, "MMITM04", "SERIAL 7'S. 1 POINT FOR EACH CORRECT.", "MMSE", "ATTENTION AND CALCULATI", "5", "", "5", 5, "", "", "", "", "", 1.0, "SCREENING 1", -7, "TREATMENT", "2013-10-26", -7], [575, "CDISCPILOT01", "QS", "01-705-1310", 2005, "MMITM05", "ASK FOR THE 3 OBJECTS REPEATED ABOVE.", "MMSE", "RECALL", "0", "", "0", 0, "", "", "", "", "", 1.0, "SCREENING 1", -7, "TREATMENT", "2013-10-26", -7], [576, "CDISCPILOT01", "QS", "01-705-1310", 2006, "MMITM06", "NAME A PENCIL, AND WATCH (2 POINTS)", "MMSE", "LANGUAGE", "7", "", "7", 7, "", "", "", "", "", 1.0, "SCREENING 1", -7, "TREATMENT", "2013-10-26", -7], [577, "CDISCPILOT01", "QS", "01-705-1349", 2001, "MMITM01", "WHAT IS THE (YEAR) (SEASON) (DATE) ?", "MMSE", "ORIENTATION", "4", "", "4", 4, "", "", "", "", "", 1.0, "SCREENING 1", -7, "TREATMENT", "2013-02-24", -14], [578, "CDISCPILOT01", "QS", "01-705-1349", 2002, "MMITM02", "WHERE ARE WE: (STATE) (COUNTRY) (TOWN) ?", "MMSE", "ORIENTATION", "1", "", "1", 1, "", "", "", "", "", 1.0, "SCREENING 1", -7, "TREATMENT", "2013-02-24", -14], [579, "CDISCPILOT01", "QS", "01-705-1349", 2003, "MMITM03", "NAME 3 OBJECTS: 1 SECOND TO SAY EACH.", "MMSE", "REGISTRATION", "3", "", "3", 3, "", "", "", "", "", 1.0, "SCREENING 1", -7, "TREATMENT", "2013-02-24", -14], [580, "CDISCPILOT01", "QS", "01-705-1349", 2004, "MMITM04", "SERIAL 7'S. 1 POINT FOR EACH CORRECT.", "MMSE", "ATTENTION AND CALCULATI", "1", "", "1", 1, "", "", "", "", "", 1.0, "SCREENING 1", -7, "TREATMENT", "2013-02-24", -14], [581, "CDISCPILOT01", "QS", "01-705-1349", 2005, "MMITM05", "ASK FOR THE 3 OBJECTS REPEATED ABOVE.", "MMSE", "RECALL", "1", "", "1", 1, "", "", "", "", "", 1.0, "SCREENING 1", -7, "TREATMENT", "2013-02-24", -14], [582, "CDISCPILOT01", "QS", "01-705-1349", 2006, "MMITM06", "NAME A PENCIL, AND WATCH (2 POINTS)", "MMSE", "LANGUAGE", "5", "", "5", 5, "", "", "", "", "", 1.0, "SCREENING 1", -7, "TREATMENT", "2013-02-24", -14], [583, "CDISCPILOT01", "QS", "01-705-1377", 2001, "MMITM01", "WHAT IS THE (YEAR) (SEASON) (DATE) ?", "MMSE", "ORIENTATION", "2", "", "2", 2, "", "", "", "", "", 1.0, "SCREENING 1", -7, "TREATMENT", "2013-12-29", -6], [584, "CDISCPILOT01", "QS", "01-705-1377", 2002, "MMITM02", "WHERE ARE WE: (STATE) (COUNTRY) (TOWN) ?", "MMSE", "ORIENTATION", "2", "", "2", 2, "", "", "", "", "", 1.0, "SCREENING 1", -7, "TREATMENT", "2013-12-29", -6], [585, "CDISCPILOT01", "QS", "01-705-1377", 2003, "MMITM03", "NAME 3 OBJECTS: 1 SECOND TO SAY EACH.", "MMSE", "REGISTRATION", "3", "", "3", 3, "", "", "", "", "", 1.0, "SCREENING 1", -7, "TREATMENT", "2013-12-29", -6], [586, "CDISCPILOT01", "QS", "01-705-1377", 2004, "MMITM04", "SERIAL 7'S. 1 POINT FOR EACH CORRECT.", "MMSE", "ATTENTION AND CALCULATI", "1", "", "1", 1, "", "", "", "", "", 1.0, "SCREENING 1", -7, "TREATMENT", "2013-12-29", -6], [587, "CDISCPILOT01", "QS", "01-705-1377", 2005, "MMITM05", "ASK FOR THE 3 OBJECTS REPEATED ABOVE.", "MMSE", "RECALL", "0", "", "0", 0, "", "", "", "", "", 1.0, "SCREENING 1", -7, "TREATMENT", "2013-12-29", -6], [588, "CDISCPILOT01", "QS", "01-705-1377", 2006, "MMITM06", "NAME A PENCIL, AND WATCH (2 POINTS)", "MMSE", "LANGUAGE", "6", "", "6", 6, "", "", "", "", "", 1.0, "SCREENING 1", -7, "TREATMENT", "2013-12-29", -6], [589, "CDISCPILOT01", "QS", "01-705-1382", 2001, "MMITM01", "WHAT IS THE (YEAR) (SEASON) (DATE) ?", "MMSE", "ORIENTATION", "2", "", "2", 2, "", "", "", "", "", 1.0, "SCREENING 1", -7, "TREATMENT", "2013-05-09", -4], [590, "CDISCPILOT01", "QS", "01-705-1382", 2002, "MMITM02", "WHERE ARE WE: (STATE) (COUNTRY) (TOWN) ?", "MMSE", "ORIENTATION", "2", "", "2", 2, "", "", "", "", "", 1.0, "SCREENING 1", -7, "TREATMENT", "2013-05-09", -4], [591, "CDISCPILOT01", "QS", "01-705-1382", 2003, "MMITM03", "NAME 3 OBJECTS: 1 SECOND TO SAY EACH.", "MMSE", "REGISTRATION", "3", "", "3", 3, "", "", "", "", "", 1.0, "SCREENING 1", -7, "TREATMENT", "2013-05-09", -4], [592, "CDISCPILOT01", "QS", "01-705-1382", 2004, "MMITM04", "SERIAL 7'S. 1 POINT FOR EACH CORRECT.", "MMSE", "ATTENTION AND CALCULATI", "3", "", "3", 3, "", "", "", "", "", 1.0, "SCREENING 1", -7, "TREATMENT", "2013-05-09", -4], [593, "CDISCPILOT01", "QS", "01-705-1382", 2005, "MMITM05", "ASK FOR THE 3 OBJECTS REPEATED ABOVE.", "MMSE", "RECALL", "0", "", "0", 0, "", "", "", "", "", 1.0, "SCREENING 1", -7, "TREATMENT", "2013-05-09", -4], [594, "CDISCPILOT01", "QS", "01-705-1382", 2006, "MMITM06", "NAME A PENCIL, AND WATCH (2 POINTS)", "MMSE", "LANGUAGE", "9", "", "9", 9, "", "", "", "", "", 1.0, "SCREENING 1", -7, "TREATMENT", "2013-05-09", -4], [595, "CDISCPILOT01", "QS", "01-705-1393", 2001, "MMITM01", "WHAT IS THE (YEAR) (SEASON) (DATE) ?", "MMSE", "ORIENTATION", "2", "", "2", 2, "", "", "", "", "", 1.0, "SCREENING 1", -7, "TREATMENT", "2012-09-02", -5], [596, "CDISCPILOT01", "QS", "01-705-1393", 2002, "MMITM02", "WHERE ARE WE: (STATE) (COUNTRY) (TOWN) ?", "MMSE", "ORIENTATION", "3", "", "3", 3, "", "", "", "", "", 1.0, "SCREENING 1", -7, "TREATMENT", "2012-09-02", -5], [597, "CDISCPILOT01", "QS", "01-705-1393", 2003, "MMITM03", "NAME 3 OBJECTS: 1 SECOND TO SAY EACH.", "MMSE", "REGISTRATION", "3", "", "3", 3, "", "", "", "", "", 1.0, "SCREENING 1", -7, "TREATMENT", "2012-09-02", -5], [598, "CDISCPILOT01", "QS", "01-705-1393", 2004, "MMITM04", "SERIAL 7'S. 1 POINT FOR EACH CORRECT.", "MMSE", "ATTENTION AND CALCULATI", "3", "", "3", 3, "", "", "", "", "", 1.0, "SCREENING 1", -7, "TREATMENT", "2012-09-02", -5], [599, "CDISCPILOT01", "QS", "01-705-1393", 2005, "MMITM05", "ASK FOR THE 3 OBJECTS REPEATED ABOVE.", "MMSE", "RECALL", "0", "", "0", 0, "", "", "", "", "", 1.0, "SCREENING 1", -7, "TREATMENT", "2012-09-02", -5], [600, "CDISCPILOT01", "QS", "01-705-1393", 2006, "MMITM06", "NAME A PENCIL, AND WATCH (2 POINTS)", "MMSE", "LANGUAGE", "8", "", "8", 8, "", "", "", "", "", 1.0, "SCREENING 1", -7, "TREATMENT", "2012-09-02", -5], [601, "CDISCPILOT01", "QS", "01-705-1431", 2001, "MMITM01", "WHAT IS THE (YEAR) (SEASON) (DATE) ?", "MMSE", "ORIENTATION", "3", "", "3", 3, "", "", "", "", "", 1.0, "SCREENING 1", -7, "TREATMENT", "2013-06-16", -7], [602, "CDISCPILOT01", "QS", "01-705-1431", 2002, "MMITM02", "WHERE ARE WE: (STATE) (COUNTRY) (TOWN) ?", "MMSE", "ORIENTATION", "4", "", "4", 4, "", "", "", "", "", 1.0, "SCREENING 1", -7, "TREATMENT", "2013-06-16", -7], [603, "CDISCPILOT01", "QS", "01-705-1431", 2003, "MMITM03", "NAME 3 OBJECTS: 1 SECOND TO SAY EACH.", "MMSE", "REGISTRATION", "2", "", "2", 2, "", "", "", "", "", 1.0, "SCREENING 1", -7, "TREATMENT", "2013-06-16", -7], [604, "CDISCPILOT01", "QS", "01-705-1431", 2004, "MMITM04", "SERIAL 7'S. 1 POINT FOR EACH CORRECT.", "MMSE", "ATTENTION AND CALCULATI", "1", "", "1", 1, "", "", "", "", "", 1.0, "SCREENING 1", -7, "TREATMENT", "2013-06-16", -7], [605, "CDISCPILOT01", "QS", "01-705-1431", 2005, "MMITM05", "ASK FOR THE 3 OBJECTS REPEATED ABOVE.", "MMSE", "RECALL", "2", "", "2", 2, "", "", "", "", "", 1.0, "SCREENING 1", -7, "TREATMENT", "2013-06-16", -7], [606, "CDISCPILOT01", "QS", "01-705-1431", 2006, "MMITM06", "NAME A PENCIL, AND WATCH (2 POINTS)", "MMSE", "LANGUAGE", "9", "", "9", 9, "", "", "", "", "", 1.0, "SCREENING 1", -7, "TREATMENT", "2013-06-16", -7], [607, "CDISCPILOT01", "QS", "01-706-1041", 2001, "MMITM01", "WHAT IS THE (YEAR) (SEASON) (DATE) ?", "MMSE", "ORIENTATION", "2", "", "2", 2, "", "", "", "", "", 1.0, "SCREENING 1", -7, "TREATMENT", "2013-12-21", -10], [608, "CDISCPILOT01", "QS", "01-706-1041", 2002, "MMITM02", "WHERE ARE WE: (STATE) (COUNTRY) (TOWN) ?", "MMSE", "ORIENTATION", "4", "", "4", 4, "", "", "", "", "", 1.0, "SCREENING 1", -7, "TREATMENT", "2013-12-21", -10], [609, "CDISCPILOT01", "QS", "01-706-1041", 2003, "MMITM03", "NAME 3 OBJECTS: 1 SECOND TO SAY EACH.", "MMSE", "REGISTRATION", "3", "", "3", 3, "", "", "", "", "", 1.0, "SCREENING 1", -7, "TREATMENT", "2013-12-21", -10], [610, "CDISCPILOT01", "QS", "01-706-1041", 2004, "MMITM04", "SERIAL 7'S. 1 POINT FOR EACH CORRECT.", "MMSE", "ATTENTION AND CALCULATI", "2", "", "2", 2, "", "", "", "", "", 1.0, "SCREENING 1", -7, "TREATMENT", "2013-12-21", -10], [611, "CDISCPILOT01", "QS", "01-706-1041", 2005, "MMITM05", "ASK FOR THE 3 OBJECTS REPEATED ABOVE.", "MMSE", "RECALL", "1", "", "1", 1, "", "", "", "", "", 1.0, "SCREENING 1", -7, "TREATMENT", "2013-12-21", -10], [612, "CDISCPILOT01", "QS", "01-706-1041", 2006, "MMITM06", "NAME A PENCIL, AND WATCH (2 POINTS)", "MMSE", "LANGUAGE", "8", "", "8", 8, "", "", "", "", "", 1.0, "SCREENING 1", -7, "TREATMENT", "2013-12-21", -10], [613, "CDISCPILOT01", "QS", "01-706-1049", 2001, "MMITM01", "WHAT IS THE (YEAR) (SEASON) (DATE) ?", "MMSE", "ORIENTATION", "1", "", "1", 1, "", "", "", "", "", 1.0, "SCREENING 1", -7, "TREATMENT", "2013-04-30", -14], [614, "CDISCPILOT01", "QS", "01-706-1049", 2002, "MMITM02", "WHERE ARE WE: (STATE) (COUNTRY) (TOWN) ?", "MMSE", "ORIENTATION", "3", "", "3", 3, "", "", "", "", "", 1.0, "SCREENING 1", -7, "TREATMENT", "2013-04-30", -14], [615, "CDISCPILOT01", "QS", "01-706-1049", 2003, "MMITM03", "NAME 3 OBJECTS: 1 SECOND TO SAY EACH.", "MMSE", "REGISTRATION", "3", "", "3", 3, "", "", "", "", "", 1.0, "SCREENING 1", -7, "TREATMENT", "2013-04-30", -14], [616, "CDISCPILOT01", "QS", "01-706-1049", 2004, "MMITM04", "SERIAL 7'S. 1 POINT FOR EACH CORRECT.", "MMSE", "ATTENTION AND CALCULATI", "2", "", "2", 2, "", "", "", "", "", 1.0, "SCREENING 1", -7, "TREATMENT", "2013-04-30", -14], [617, "CDISCPILOT01", "QS", "01-706-1049", 2005, "MMITM05", "ASK FOR THE 3 OBJECTS REPEATED ABOVE.", "MMSE", "RECALL", "0", "", "0", 0, "", "", "", "", "", 1.0, "SCREENING 1", -7, "TREATMENT", "2013-04-30", -14], [618, "CDISCPILOT01", "QS", "01-706-1049", 2006, "MMITM06", "NAME A PENCIL, AND WATCH (2 POINTS)", "MMSE", "LANGUAGE", "7", "", "7", 7, "", "", "", "", "", 1.0, "SCREENING 1", -7, "TREATMENT", "2013-04-30", -14], [619, "CDISCPILOT01", "QS", "01-706-1384", 2001, "MMITM01", "WHAT IS THE (YEAR) (SEASON) (DATE) ?", "MMSE", "ORIENTATION", "4", "", "4", 4, "", "", "", "", "", 1.0, "SCREENING 1", -7, "TREATMENT", "2012-08-25", -21], [620, "CDISCPILOT01", "QS", "01-706-1384", 2002, "MMITM02", "WHERE ARE WE: (STATE) (COUNTRY) (TOWN) ?", "MMSE", "ORIENTATION", "1", "", "1", 1, "", "", "", "", "", 1.0, "SCREENING 1", -7, "TREATMENT", "2012-08-25", -21], [621, "CDISCPILOT01", "QS", "01-706-1384", 2003, "MMITM03", "NAME 3 OBJECTS: 1 SECOND TO SAY EACH.", "MMSE", "REGISTRATION", "3", "", "3", 3, "", "", "", "", "", 1.0, "SCREENING 1", -7, "TREATMENT", "2012-08-25", -21], [622, "CDISCPILOT01", "QS", "01-706-1384", 2004, "MMITM04", "SERIAL 7'S. 1 POINT FOR EACH CORRECT.", "MMSE", "ATTENTION AND CALCULATI", "5", "", "5", 5, "", "", "", "", "", 1.0, "SCREENING 1", -7, "TREATMENT", "2012-08-25", -21], [623, "CDISCPILOT01", "QS", "01-706-1384", 2005, "MMITM05", "ASK FOR THE 3 OBJECTS REPEATED ABOVE.", "MMSE", "RECALL", "0", "", "0", 0, "", "", "", "", "", 1.0, "SCREENING 1", -7, "TREATMENT", "2012-08-25", -21], [624, "CDISCPILOT01", "QS", "01-706-1384", 2006, "MMITM06", "NAME A PENCIL, AND WATCH (2 POINTS)", "MMSE", "LANGUAGE", "7", "", "7", 7, "", "", "", "", "", 1.0, "SCREENING 1", -7, "TREATMENT", "2012-08-25", -21], [625, "CDISCPILOT01", "QS", "01-707-1037", 2001, "MMITM01", "WHAT IS THE (YEAR) (SEASON) (DATE) ?", "MMSE", "ORIENTATION", "3", "", "3", 3, "", "", "", "", "", 1.0, "SCREENING 1", -7, "TREATMENT", "2013-12-12", -8], [626, "CDISCPILOT01", "QS", "01-707-1037", 2002, "MMITM02", "WHERE ARE WE: (STATE) (COUNTRY) (TOWN) ?", "MMSE", "ORIENTATION", "3", "", "3", 3, "", "", "", "", "", 1.0, "SCREENING 1", -7, "TREATMENT", "2013-12-12", -8], [627, "CDISCPILOT01", "QS", "01-707-1037", 2003, "MMITM03", "NAME 3 OBJECTS: 1 SECOND TO SAY EACH.", "MMSE", "REGISTRATION", "3", "", "3", 3, "", "", "", "", "", 1.0, "SCREENING 1", -7, "TREATMENT", "2013-12-12", -8], [628, "CDISCPILOT01", "QS", "01-707-1037", 2004, "MMITM04", "SERIAL 7'S. 1 POINT FOR EACH CORRECT.", "MMSE", "ATTENTION AND CALCULATI", "5", "", "5", 5, "", "", "", "", "", 1.0, "SCREENING 1", -7, "TREATMENT", "2013-12-12", -8], [629, "CDISCPILOT01", "QS", "01-707-1037", 2005, "MMITM05", "ASK FOR THE 3 OBJECTS REPEATED ABOVE.", "MMSE", "RECALL", "1", "", "1", 1, "", "", "", "", "", 1.0, "SCREENING 1", -7, "TREATMENT", "2013-12-12", -8], [630, "CDISCPILOT01", "QS", "01-707-1037", 2006, "MMITM06", "NAME A PENCIL, AND WATCH (2 POINTS)", "MMSE", "LANGUAGE", "9", "", "9", 9, "", "", "", "", "", 1.0, "SCREENING 1", -7, "TREATMENT", "2013-12-12", -8], [631, "CDISCPILOT01", "QS", "01-707-1206", 2001, "MMITM01", "WHAT IS THE (YEAR) (SEASON) (DATE) ?", "MMSE", "ORIENTATION", "3", "", "3", 3, "", "", "", "", "", 1.0, "SCREENING 1", -7, "TREATMENT", "2013-10-20", -8], [632, "CDISCPILOT01", "QS", "01-707-1206", 2002, "MMITM02", "WHERE ARE WE: (STATE) (COUNTRY) (TOWN) ?", "MMSE", "ORIENTATION", "2", "", "2", 2, "", "", "", "", "", 1.0, "SCREENING 1", -7, "TREATMENT", "2013-10-20", -8], [633, "CDISCPILOT01", "QS", "01-707-1206", 2003, "MMITM03", "NAME 3 OBJECTS: 1 SECOND TO SAY EACH.", "MMSE", "REGISTRATION", "3", "", "3", 3, "", "", "", "", "", 1.0, "SCREENING 1", -7, "TREATMENT", "2013-10-20", -8], [634, "CDISCPILOT01", "QS", "01-707-1206", 2004, "MMITM04", "SERIAL 7'S. 1 POINT FOR EACH CORRECT.", "MMSE", "ATTENTION AND CALCULATI", "5", "", "5", 5, "", "", "", "", "", 1.0, "SCREENING 1", -7, "TREATMENT", "2013-10-20", -8], [635, "CDISCPILOT01", "QS", "01-707-1206", 2005, "MMITM05", "ASK FOR THE 3 OBJECTS REPEATED ABOVE.", "MMSE", "RECALL", "0", "", "0", 0, "", "", "", "", "", 1.0, "SCREENING 1", -7, "TREATMENT", "2013-10-20", -8], [636, "CDISCPILOT01", "QS", "01-707-1206", 2006, "MMITM06", "NAME A PENCIL, AND WATCH (2 POINTS)", "MMSE", "LANGUAGE", "8", "", "8", 8, "", "", "", "", "", 1.0, "SCREENING 1", -7, "TREATMENT", "2013-10-20", -8], [637, "CDISCPILOT01", "QS", "01-708-1019", 2001, "MMITM01", "WHAT IS THE (YEAR) (SEASON) (DATE) ?", "MMSE", "ORIENTATION", "1", "", "1", 1, "", "", "", "", "", 1.0, "SCREENING 1", -7, "TREATMENT", "2013-12-10", -10], [638, "CDISCPILOT01", "QS", "01-708-1019", 2002, "MMITM02", "WHERE ARE WE: (STATE) (COUNTRY) (TOWN) ?", "MMSE", "ORIENTATION", "3", "", "3", 3, "", "", "", "", "", 1.0, "SCREENING 1", -7, "TREATMENT", "2013-12-10", -10], [639, "CDISCPILOT01", "QS", "01-708-1019", 2003, "MMITM03", "NAME 3 OBJECTS: 1 SECOND TO SAY EACH.", "MMSE", "REGISTRATION", "3", "", "3", 3, "", "", "", "", "", 1.0, "SCREENING 1", -7, "TREATMENT", "2013-12-10", -10], [640, "CDISCPILOT01", "QS", "01-708-1019", 2004, "MMITM04", "SERIAL 7'S. 1 POINT FOR EACH CORRECT.", "MMSE", "ATTENTION AND CALCULATI", "1", "", "1", 1, "", "", "", "", "", 1.0, "SCREENING 1", -7, "TREATMENT", "2013-12-10", -10], [641, "CDISCPILOT01", "QS", "01-708-1019", 2005, "MMITM05", "ASK FOR THE 3 OBJECTS REPEATED ABOVE.", "MMSE", "RECALL", "1", "", "1", 1, "", "", "", "", "", 1.0, "SCREENING 1", -7, "TREATMENT", "2013-12-10", -10], [642, "CDISCPILOT01", "QS", "01-708-1019", 2006, "MMITM06", "NAME A PENCIL, AND WATCH (2 POINTS)", "MMSE", "LANGUAGE", "8", "", "8", 8, "", "", "", "", "", 1.0, "SCREENING 1", -7, "TREATMENT", "2013-12-10", -10], [643, "CDISCPILOT01", "QS", "01-708-1032", 2001, "MMITM01", "WHAT IS THE (YEAR) (SEASON) (DATE) ?", "MMSE", "ORIENTATION", "1", "", "1", 1, "", "", "", "", "", 1.0, "SCREENING 1", -7, "TREATMENT", "2013-02-02", -7], [644, "CDISCPILOT01", "QS", "01-708-1032", 2002, "MMITM02", "WHERE ARE WE: (STATE) (COUNTRY) (TOWN) ?", "MMSE", "ORIENTATION", "4", "", "4", 4, "", "", "", "", "", 1.0, "SCREENING 1", -7, "TREATMENT", "2013-02-02", -7], [645, "CDISCPILOT01", "QS", "01-708-1032", 2003, "MMITM03", "NAME 3 OBJECTS: 1 SECOND TO SAY EACH.", "MMSE", "REGISTRATION", "3", "", "3", 3, "", "", "", "", "", 1.0, "SCREENING 1", -7, "TREATMENT", "2013-02-02", -7], [646, "CDISCPILOT01", "QS", "01-708-1032", 2004, "MMITM04", "SERIAL 7'S. 1 POINT FOR EACH CORRECT.", "MMSE", "ATTENTION AND CALCULATI", "2", "", "2", 2, "", "", "", "", "", 1.0, "SCREENING 1", -7, "TREATMENT", "2013-02-02", -7], [647, "CDISCPILOT01", "QS", "01-708-1032", 2005, "MMITM05", "ASK FOR THE 3 OBJECTS REPEATED ABOVE.", "MMSE", "RECALL", "0", "", "0", 0, "", "", "", "", "", 1.0, "SCREENING 1", -7, "TREATMENT", "2013-02-02", -7], [648, "CDISCPILOT01", "QS", "01-708-1032", 2006, "MMITM06", "NAME A PENCIL, AND WATCH (2 POINTS)", "MMSE", "LANGUAGE", "8", "", "8", 8, "", "", "", "", "", 1.0, "SCREENING 1", -7, "TREATMENT", "2013-02-02", -7], [649, "CDISCPILOT01", "QS", "01-708-1084", 2001, "MMITM01", "WHAT IS THE (YEAR) (SEASON) (DATE) ?", "MMSE", "ORIENTATION", "5", "", "5", 5, "", "", "", "", "", 1.0, "SCREENING 1", -7, "TREATMENT", "2013-05-01", -8], [650, "CDISCPILOT01", "QS", "01-708-1084", 2002, "MMITM02", "WHERE ARE WE: (STATE) (COUNTRY) (TOWN) ?", "MMSE", "ORIENTATION", "4", "", "4", 4, "", "", "", "", "", 1.0, "SCREENING 1", -7, "TREATMENT", "2013-05-01", -8], [651, "CDISCPILOT01", "QS", "01-708-1084", 2003, "MMITM03", "NAME 3 OBJECTS: 1 SECOND TO SAY EACH.", "MMSE", "REGISTRATION", "3", "", "3", 3, "", "", "", "", "", 1.0, "SCREENING 1", -7, "TREATMENT", "2013-05-01", -8], [652, "CDISCPILOT01", "QS", "01-708-1084", 2004, "MMITM04", "SERIAL 7'S. 1 POINT FOR EACH CORRECT.", "MMSE", "ATTENTION AND CALCULATI", "1", "", "1", 1, "", "", "", "", "", 1.0, "SCREENING 1", -7, "TREATMENT", "2013-05-01", -8], [653, "CDISCPILOT01", "QS", "01-708-1084", 2005, "MMITM05", "ASK FOR THE 3 OBJECTS REPEATED ABOVE.", "MMSE", "RECALL", "2", "", "2", 2, "", "", "", "", "", 1.0, "SCREENING 1", -7, "TREATMENT", "2013-05-01", -8], [654, "CDISCPILOT01", "QS", "01-708-1084", 2006, "MMITM06", "NAME A PENCIL, AND WATCH (2 POINTS)", "MMSE", "LANGUAGE", "8", "", "8", 8, "", "", "", "", "", 1.0, "SCREENING 1", -7, "TREATMENT", "2013-05-01", -8], [655, "CDISCPILOT01", "QS", "01-708-1087", 2001, "MMITM01", "WHAT IS THE (YEAR) (SEASON) (DATE) ?", "MMSE", "ORIENTATION", "2", "", "2", 2, "", "", "", "", "", 1.0, "SCREENING 1", -7, "TREATMENT", "2012-10-06", -16], [656, "CDISCPILOT01", "QS", "01-708-1087", 2002, "MMITM02", "WHERE ARE WE: (STATE) (COUNTRY) (TOWN) ?", "MMSE", "ORIENTATION", "3", "", "3", 3, "", "", "", "", "", 1.0, "SCREENING 1", -7, "TREATMENT", "2012-10-06", -16], [657, "CDISCPILOT01", "QS", "01-708-1087", 2003, "MMITM03", "NAME 3 OBJECTS: 1 SECOND TO SAY EACH.", "MMSE", "REGISTRATION", "3", "", "3", 3, "", "", "", "", "", 1.0, "SCREENING 1", -7, "TREATMENT", "2012-10-06", -16], [658, "CDISCPILOT01", "QS", "01-708-1087", 2004, "MMITM04", "SERIAL 7'S. 1 POINT FOR EACH CORRECT.", "MMSE", "ATTENTION AND CALCULATI", "0", "", "0", 0, "", "", "", "", "", 1.0, "SCREENING 1", -7, "TREATMENT", "2012-10-06", -16], [659, "CDISCPILOT01", "QS", "01-708-1087", 2005, "MMITM05", "ASK FOR THE 3 OBJECTS REPEATED ABOVE.", "MMSE", "RECALL", "2", "", "2", 2, "", "", "", "", "", 1.0, "SCREENING 1", -7, "TREATMENT", "2012-10-06", -16], [660, "CDISCPILOT01", "QS", "01-708-1087", 2006, "MMITM06", "NAME A PENCIL, AND WATCH (2 POINTS)", "MMSE", "LANGUAGE", "7", "", "7", 7, "", "", "", "", "", 1.0, "SCREENING 1", -7, "TREATMENT", "2012-10-06", -16], [661, "CDISCPILOT01", "QS", "01-708-1158", 2001, "MMITM01", "WHAT IS THE (YEAR) (SEASON) (DATE) ?", "MMSE", "ORIENTATION", "1", "", "1", 1, "", "", "", "", "", 1.0, "SCREENING 1", -7, "TREATMENT", "2014-02-01", -7], [662, "CDISCPILOT01", "QS", "01-708-1158", 2002, "MMITM02", "WHERE ARE WE: (STATE) (COUNTRY) (TOWN) ?", "MMSE", "ORIENTATION", "3", "", "3", 3, "", "", "", "", "", 1.0, "SCREENING 1", -7, "TREATMENT", "2014-02-01", -7], [663, "CDISCPILOT01", "QS", "01-708-1158", 2003, "MMITM03", "NAME 3 OBJECTS: 1 SECOND TO SAY EACH.", "MMSE", "REGISTRATION", "3", "", "3", 3, "", "", "", "", "", 1.0, "SCREENING 1", -7, "TREATMENT", "2014-02-01", -7], [664, "CDISCPILOT01", "QS", "01-708-1158", 2004, "MMITM04", "SERIAL 7'S. 1 POINT FOR EACH CORRECT.", "MMSE", "ATTENTION AND CALCULATI", "1", "", "1", 1, "", "", "", "", "", 1.0, "SCREENING 1", -7, "TREATMENT", "2014-02-01", -7], [665, "CDISCPILOT01", "QS", "01-708-1158", 2005, "MMITM05", "ASK FOR THE 3 OBJECTS REPEATED ABOVE.", "MMSE", "RECALL", "0", "", "0", 0, "", "", "", "", "", 1.0, "SCREENING 1", -7, "TREATMENT", "2014-02-01", -7], [666, "CDISCPILOT01", "QS", "01-708-1158", 2006, "MMITM06", "NAME A PENCIL, AND WATCH (2 POINTS)", "MMSE", "LANGUAGE", "8", "", "8", 8, "", "", "", "", "", 1.0, "SCREENING 1", -7, "TREATMENT", "2014-02-01", -7], [667, "CDISCPILOT01", "QS", "01-708-1171", 2001, "MMITM01", "WHAT IS THE (YEAR) (SEASON) (DATE) ?", "MMSE", "ORIENTATION", "1", "", "1", 1, "", "", "", "", "", 1.0, "SCREENING 1", -7, "TREATMENT", "2012-11-25", -11], [668, "CDISCPILOT01", "QS", "01-708-1171", 2002, "MMITM02", "WHERE ARE WE: (STATE) (COUNTRY) (TOWN) ?", "MMSE", "ORIENTATION", "2", "", "2", 2, "", "", "", "", "", 1.0, "SCREENING 1", -7, "TREATMENT", "2012-11-25", -11], [669, "CDISCPILOT01", "QS", "01-708-1171", 2003, "MMITM03", "NAME 3 OBJECTS: 1 SECOND TO SAY EACH.", "MMSE", "REGISTRATION", "3", "", "3", 3, "", "", "", "", "", 1.0, "SCREENING 1", -7, "TREATMENT", "2012-11-25", -11], [670, "CDISCPILOT01", "QS", "01-708-1171", 2004, "MMITM04", "SERIAL 7'S. 1 POINT FOR EACH CORRECT.", "MMSE", "ATTENTION AND CALCULATI", "0", "", "0", 0, "", "", "", "", "", 1.0, "SCREENING 1", -7, "TREATMENT", "2012-11-25", -11], [671, "CDISCPILOT01", "QS", "01-708-1171", 2005, "MMITM05", "ASK FOR THE 3 OBJECTS REPEATED ABOVE.", "MMSE", "RECALL", "0", "", "0", 0, "", "", "", "", "", 1.0, "SCREENING 1", -7, "TREATMENT", "2012-11-25", -11], [672, "CDISCPILOT01", "QS", "01-708-1171", 2006, "MMITM06", "NAME A PENCIL, AND WATCH (2 POINTS)", "MMSE", "LANGUAGE", "7", "", "7", 7, "", "", "", "", "", 1.0, "SCREENING 1", -7, "TREATMENT", "2012-11-25", -11], [673, "CDISCPILOT01", "QS", "01-708-1178", 2001, "MMITM01", "WHAT IS THE (YEAR) (SEASON) (DATE) ?", "MMSE", "ORIENTATION", "0", "", "0", 0, "", "", "", "", "", 1.0, "SCREENING 1", -7, "TREATMENT", "2013-12-13", -16], [674, "CDISCPILOT01", "QS", "01-708-1178", 2002, "MMITM02", "WHERE ARE WE: (STATE) (COUNTRY) (TOWN) ?", "MMSE", "ORIENTATION", "2", "", "2", 2, "", "", "", "", "", 1.0, "SCREENING 1", -7, "TREATMENT", "2013-12-13", -16], [675, "CDISCPILOT01", "QS", "01-708-1178", 2003, "MMITM03", "NAME 3 OBJECTS: 1 SECOND TO SAY EACH.", "MMSE", "REGISTRATION", "3", "", "3", 3, "", "", "", "", "", 1.0, "SCREENING 1", -7, "TREATMENT", "2013-12-13", -16], [676, "CDISCPILOT01", "QS", "01-708-1178", 2004, "MMITM04", "SERIAL 7'S. 1 POINT FOR EACH CORRECT.", "MMSE", "ATTENTION AND CALCULATI", "0", "", "0", 0, "", "", "", "", "", 1.0, "SCREENING 1", -7, "TREATMENT", "2013-12-13", -16], [677, "CDISCPILOT01", "QS", "01-708-1178", 2005, "MMITM05", "ASK FOR THE 3 OBJECTS REPEATED ABOVE.", "MMSE", "RECALL", "0", "", "0", 0, "", "", "", "", "", 1.0, "SCREENING 1", -7, "TREATMENT", "2013-12-13", -16], [678, "CDISCPILOT01", "QS", "01-708-1178", 2006, "MMITM06", "NAME A PENCIL, AND WATCH (2 POINTS)", "MMSE", "LANGUAGE", "5", "", "5", 5, "", "", "", "", "", 1.0, "SCREENING 1", -7, "TREATMENT", "2013-12-13", -16], [679, "CDISCPILOT01", "QS", "01-708-1213", 2001, "MMITM01", "WHAT IS THE (YEAR) (SEASON) (DATE) ?", "MMSE", "ORIENTATION", "1", "", "1", 1, "", "", "", "", "", 1.0, "SCREENING 1", -7, "TREATMENT", "2013-02-01", -8], [680, "CDISCPILOT01", "QS", "01-708-1213", 2002, "MMITM02", "WHERE ARE WE: (STATE) (COUNTRY) (TOWN) ?", "MMSE", "ORIENTATION", "1", "", "1", 1, "", "", "", "", "", 1.0, "SCREENING 1", -7, "TREATMENT", "2013-02-01", -8], [681, "CDISCPILOT01", "QS", "01-708-1213", 2003, "MMITM03", "NAME 3 OBJECTS: 1 SECOND TO SAY EACH.", "MMSE", "REGISTRATION", "3", "", "3", 3, "", "", "", "", "", 1.0, "SCREENING 1", -7, "TREATMENT", "2013-02-01", -8], [682, "CDISCPILOT01", "QS", "01-708-1213", 2004, "MMITM04", "SERIAL 7'S. 1 POINT FOR EACH CORRECT.", "MMSE", "ATTENTION AND CALCULATI", "1", "", "1", 1, "", "", "", "", "", 1.0, "SCREENING 1", -7, "TREATMENT", "2013-02-01", -8], [683, "CDISCPILOT01", "QS", "01-708-1213", 2005, "MMITM05", "ASK FOR THE 3 OBJECTS REPEATED ABOVE.", "MMSE", "RECALL", "1", "", "1", 1, "", "", "", "", "", 1.0, "SCREENING 1", -7, "TREATMENT", "2013-02-01", -8], [684, "CDISCPILOT01", "QS", "01-708-1213", 2006, "MMITM06", "NAME A PENCIL, AND WATCH (2 POINTS)", "MMSE", "LANGUAGE", "7", "", "7", 7, "", "", "", "", "", 1.0, "SCREENING 1", -7, "TREATMENT", "2013-02-01", -8], [685, "CDISCPILOT01", "QS", "01-708-1216", 2001, "MMITM01", "WHAT IS THE (YEAR) (SEASON) (DATE) ?", "MMSE", "ORIENTATION", "1", "", "1", 1, "", "", "", "", "", 1.0, "SCREENING 1", -7, "TREATMENT", "2012-10-14", -10], [686, "CDISCPILOT01", "QS", "01-708-1216", 2002, "MMITM02", "WHERE ARE WE: (STATE) (COUNTRY) (TOWN) ?", "MMSE", "ORIENTATION", "2", "", "2", 2, "", "", "", "", "", 1.0, "SCREENING 1", -7, "TREATMENT", "2012-10-14", -10], [687, "CDISCPILOT01", "QS", "01-708-1216", 2003, "MMITM03", "NAME 3 OBJECTS: 1 SECOND TO SAY EACH.", "MMSE", "REGISTRATION", "3", "", "3", 3, "", "", "", "", "", 1.0, "SCREENING 1", -7, "TREATMENT", "2012-10-14", -10], [688, "CDISCPILOT01", "QS", "01-708-1216", 2004, "MMITM04", "SERIAL 7'S. 1 POINT FOR EACH CORRECT.", "MMSE", "ATTENTION AND CALCULATI", "4", "", "4", 4, "", "", "", "", "", 1.0, "SCREENING 1", -7, "TREATMENT", "2012-10-14", -10], [689, "CDISCPILOT01", "QS", "01-708-1216", 2005, "MMITM05", "ASK FOR THE 3 OBJECTS REPEATED ABOVE.", "MMSE", "RECALL", "0", "", "0", 0, "", "", "", "", "", 1.0, "SCREENING 1", -7, "TREATMENT", "2012-10-14", -10], [690, "CDISCPILOT01", "QS", "01-708-1216", 2006, "MMITM06", "NAME A PENCIL, AND WATCH (2 POINTS)", "MMSE", "LANGUAGE", "7", "", "7", 7, "", "", "", "", "", 1.0, "SCREENING 1", -7, "TREATMENT", "2012-10-14", -10], [691, "CDISCPILOT01", "QS", "01-708-1236", 2001, "MMITM01", "WHAT IS THE (YEAR) (SEASON) (DATE) ?", "MMSE", "ORIENTATION", "2", "", "2", 2, "", "", "", "", "", 1.0, "SCREENING 1", -7, "TREATMENT", "2013-09-08", -13], [692, "CDISCPILOT01", "QS", "01-708-1236", 2002, "MMITM02", "WHERE ARE WE: (STATE) (COUNTRY) (TOWN) ?", "MMSE", "ORIENTATION", "3", "", "3", 3, "", "", "", "", "", 1.0, "SCREENING 1", -7, "TREATMENT", "2013-09-08", -13], [693, "CDISCPILOT01", "QS", "01-708-1236", 2003, "MMITM03", "NAME 3 OBJECTS: 1 SECOND TO SAY EACH.", "MMSE", "REGISTRATION", "3", "", "3", 3, "", "", "", "", "", 1.0, "SCREENING 1", -7, "TREATMENT", "2013-09-08", -13], [694, "CDISCPILOT01", "QS", "01-708-1236", 2004, "MMITM04", "SERIAL 7'S. 1 POINT FOR EACH CORRECT.", "MMSE", "ATTENTION AND CALCULATI", "3", "", "3", 3, "", "", "", "", "", 1.0, "SCREENING 1", -7, "TREATMENT", "2013-09-08", -13], [695, "CDISCPILOT01", "QS", "01-708-1236", 2005, "MMITM05", "ASK FOR THE 3 OBJECTS REPEATED ABOVE.", "MMSE", "RECALL", "2", "", "2", 2, "", "", "", "", "", 1.0, "SCREENING 1", -7, "TREATMENT", "2013-09-08", -13], [696, "CDISCPILOT01", "QS", "01-708-1236", 2006, "MMITM06", "NAME A PENCIL, AND WATCH (2 POINTS)", "MMSE", "LANGUAGE", "9", "", "9", 9, "", "", "", "", "", 1.0, "SCREENING 1", -7, "TREATMENT", "2013-09-08", -13], [697, "CDISCPILOT01", "QS", "01-708-1253", 2001, "MMITM01", "WHAT IS THE (YEAR) (SEASON) (DATE) ?", "MMSE", "ORIENTATION", "1", "", "1", 1, "", "", "", "", "", 1.0, "SCREENING 1", -7, "TREATMENT", "2013-04-26", -11], [698, "CDISCPILOT01", "QS", "01-708-1253", 2002, "MMITM02", "WHERE ARE WE: (STATE) (COUNTRY) (TOWN) ?", "MMSE", "ORIENTATION", "4", "", "4", 4, "", "", "", "", "", 1.0, "SCREENING 1", -7, "TREATMENT", "2013-04-26", -11], [699, "CDISCPILOT01", "QS", "01-708-1253", 2003, "MMITM03", "NAME 3 OBJECTS: 1 SECOND TO SAY EACH.", "MMSE", "REGISTRATION", "2", "", "2", 2, "", "", "", "", "", 1.0, "SCREENING 1", -7, "TREATMENT", "2013-04-26", -11], [700, "CDISCPILOT01", "QS", "01-708-1253", 2004, "MMITM04", "SERIAL 7'S. 1 POINT FOR EACH CORRECT.", "MMSE", "ATTENTION AND CALCULATI", "0", "", "0", 0, "", "", "", "", "", 1.0, "SCREENING 1", -7, "TREATMENT", "2013-04-26", -11], [701, "CDISCPILOT01", "QS", "01-708-1253", 2005, "MMITM05", "ASK FOR THE 3 OBJECTS REPEATED ABOVE.", "MMSE", "RECALL", "0", "", "0", 0, "", "", "", "", "", 1.0, "SCREENING 1", -7, "TREATMENT", "2013-04-26", -11], [702, "CDISCPILOT01", "QS", "01-708-1253", 2006, "MMITM06", "NAME A PENCIL, AND WATCH (2 POINTS)", "MMSE", "LANGUAGE", "5", "", "5", 5, "", "", "", "", "", 1.0, "SCREENING 1", -7, "TREATMENT", "2013-04-26", -11], [703, "CDISCPILOT01", "QS", "01-708-1272", 2001, "MMITM01", "WHAT IS THE (YEAR) (SEASON) (DATE) ?", "MMSE", "ORIENTATION", "1", "", "1", 1, "", "", "", "", "", 1.0, "SCREENING 1", -7, "TREATMENT", "2013-01-22", -15], [704, "CDISCPILOT01", "QS", "01-708-1272", 2002, "MMITM02", "WHERE ARE WE: (STATE) (COUNTRY) (TOWN) ?", "MMSE", "ORIENTATION", "3", "", "3", 3, "", "", "", "", "", 1.0, "SCREENING 1", -7, "TREATMENT", "2013-01-22", -15], [705, "CDISCPILOT01", "QS", "01-708-1272", 2003, "MMITM03", "NAME 3 OBJECTS: 1 SECOND TO SAY EACH.", "MMSE", "REGISTRATION", "3", "", "3", 3, "", "", "", "", "", 1.0, "SCREENING 1", -7, "TREATMENT", "2013-01-22", -15], [706, "CDISCPILOT01", "QS", "01-708-1272", 2004, "MMITM04", "SERIAL 7'S. 1 POINT FOR EACH CORRECT.", "MMSE", "ATTENTION AND CALCULATI", "2", "", "2", 2, "", "", "", "", "", 1.0, "SCREENING 1", -7, "TREATMENT", "2013-01-22", -15], [707, "CDISCPILOT01", "QS", "01-708-1272", 2005, "MMITM05", "ASK FOR THE 3 OBJECTS REPEATED ABOVE.", "MMSE", "RECALL", "0", "", "0", 0, "", "", "", "", "", 1.0, "SCREENING 1", -7, "TREATMENT", "2013-01-22", -15], [708, "CDISCPILOT01", "QS", "01-708-1272", 2006, "MMITM06", "NAME A PENCIL, AND WATCH (2 POINTS)", "MMSE", "LANGUAGE", "6", "", "6", 6, "", "", "", "", "", 1.0, "SCREENING 1", -7, "TREATMENT", "2013-01-22", -15], [709, "CDISCPILOT01", "QS", "01-708-1286", 2001, "MMITM01", "WHAT IS THE (YEAR) (SEASON) (DATE) ?", "MMSE", "ORIENTATION", "0", "", "0", 0, "", "", "", "", "", 1.0, "SCREENING 1", -7, "TREATMENT", "2013-08-25", -16], [710, "CDISCPILOT01", "QS", "01-708-1286", 2002, "MMITM02", "WHERE ARE WE: (STATE) (COUNTRY) (TOWN) ?", "MMSE", "ORIENTATION", "0", "", "0", 0, "", "", "", "", "", 1.0, "SCREENING 1", -7, "TREATMENT", "2013-08-25", -16], [711, "CDISCPILOT01", "QS", "01-708-1286", 2003, "MMITM03", "NAME 3 OBJECTS: 1 SECOND TO SAY EACH.", "MMSE", "REGISTRATION", "3", "", "3", 3, "", "", "", "", "", 1.0, "SCREENING 1", -7, "TREATMENT", "2013-08-25", -16], [712, "CDISCPILOT01", "QS", "01-708-1286", 2004, "MMITM04", "SERIAL 7'S. 1 POINT FOR EACH CORRECT.", "MMSE", "ATTENTION AND CALCULATI", "0", "", "0", 0, "", "", "", "", "", 1.0, "SCREENING 1", -7, "TREATMENT", "2013-08-25", -16], [713, "CDISCPILOT01", "QS", "01-708-1286", 2005, "MMITM05", "ASK FOR THE 3 OBJECTS REPEATED ABOVE.", "MMSE", "RECALL", "0", "", "0", 0, "", "", "", "", "", 1.0, "SCREENING 1", -7, "TREATMENT", "2013-08-25", -16], [714, "CDISCPILOT01", "QS", "01-708-1286", 2006, "MMITM06", "NAME A PENCIL, AND WATCH (2 POINTS)", "MMSE", "LANGUAGE", "7", "", "7", 7, "", "", "", "", "", 1.0, "SCREENING 1", -7, "TREATMENT", "2013-08-25", -16], [715, "CDISCPILOT01", "QS", "01-708-1296", 2001, "MMITM01", "WHAT IS THE (YEAR) (SEASON) (DATE) ?", "MMSE", "ORIENTATION", "2", "", "2", 2, "", "", "", "", "", 1.0, "SCREENING 1", -7, "TREATMENT", "2013-06-07", -7], [716, "CDISCPILOT01", "QS", "01-708-1296", 2002, "MMITM02", "WHERE ARE WE: (STATE) (COUNTRY) (TOWN) ?", "MMSE", "ORIENTATION", "4", "", "4", 4, "", "", "", "", "", 1.0, "SCREENING 1", -7, "TREATMENT", "2013-06-07", -7], [717, "CDISCPILOT01", "QS", "01-708-1296", 2003, "MMITM03", "NAME 3 OBJECTS: 1 SECOND TO SAY EACH.", "MMSE", "REGISTRATION", "3", "", "3", 3, "", "", "", "", "", 1.0, "SCREENING 1", -7, "TREATMENT", "2013-06-07", -7], [718, "CDISCPILOT01", "QS", "01-708-1296", 2004, "MMITM04", "SERIAL 7'S. 1 POINT FOR EACH CORRECT.", "MMSE", "ATTENTION AND CALCULATI", "1", "", "1", 1, "", "", "", "", "", 1.0, "SCREENING 1", -7, "TREATMENT", "2013-06-07", -7], [719, "CDISCPILOT01", "QS", "01-708-1296", 2005, "MMITM05", "ASK FOR THE 3 OBJECTS REPEATED ABOVE.", "MMSE", "RECALL", "0", "", "0", 0, "", "", "", "", "", 1.0, "SCREENING 1", -7, "TREATMENT", "2013-06-07", -7], [720, "CDISCPILOT01", "QS", "01-708-1296", 2006, "MMITM06", "NAME A PENCIL, AND WATCH (2 POINTS)", "MMSE", "LANGUAGE", "6", "", "6", 6, "", "", "", "", "", 1.0, "SCREENING 1", -7, "TREATMENT", "2013-06-07", -7], [721, "CDISCPILOT01", "QS", "01-708-1297", 2001, "MMITM01", "WHAT IS THE (YEAR) (SEASON) (DATE) ?", "MMSE", "ORIENTATION", "2", "", "2", 2, "", "", "", "", "", 1.0, "SCREENING 1", -7, "TREATMENT", "2013-01-15", -10], [722, "CDISCPILOT01", "QS", "01-708-1297", 2002, "MMITM02", "WHERE ARE WE: (STATE) (COUNTRY) (TOWN) ?", "MMSE", "ORIENTATION", "3", "", "3", 3, "", "", "", "", "", 1.0, "SCREENING 1", -7, "TREATMENT", "2013-01-15", -10], [723, "CDISCPILOT01", "QS", "01-708-1297", 2003, "MMITM03", "NAME 3 OBJECTS: 1 SECOND TO SAY EACH.", "MMSE", "REGISTRATION", "3", "", "3", 3, "", "", "", "", "", 1.0, "SCREENING 1", -7, "TREATMENT", "2013-01-15", -10], [724, "CDISCPILOT01", "QS", "01-708-1297", 2004, "MMITM04", "SERIAL 7'S. 1 POINT FOR EACH CORRECT.", "MMSE", "ATTENTION AND CALCULATI", "5", "", "5", 5, "", "", "", "", "", 1.0, "SCREENING 1", -7, "TREATMENT", "2013-01-15", -10], [725, "CDISCPILOT01", "QS", "01-708-1297", 2005, "MMITM05", "ASK FOR THE 3 OBJECTS REPEATED ABOVE.", "MMSE", "RECALL", "2", "", "2", 2, "", "", "", "", "", 1.0, "SCREENING 1", -7, "TREATMENT", "2013-01-15", -10], [726, "CDISCPILOT01", "QS", "01-708-1297", 2006, "MMITM06", "NAME A PENCIL, AND WATCH (2 POINTS)", "MMSE", "LANGUAGE", "8", "", "8", 8, "", "", "", "", "", 1.0, "SCREENING 1", -7, "TREATMENT", "2013-01-15", -10], [727, "CDISCPILOT01", "QS", "01-708-1316", 2001, "MMITM01", "WHAT IS THE (YEAR) (SEASON) (DATE) ?", "MMSE", "ORIENTATION", "4", "", "4", 4, "", "", "", "", "", 1.0, "SCREENING 1", -7, "TREATMENT", "2013-08-15", -8], [728, "CDISCPILOT01", "QS", "01-708-1316", 2002, "MMITM02", "WHERE ARE WE: (STATE) (COUNTRY) (TOWN) ?", "MMSE", "ORIENTATION", "2", "", "2", 2, "", "", "", "", "", 1.0, "SCREENING 1", -7, "TREATMENT", "2013-08-15", -8], [729, "CDISCPILOT01", "QS", "01-708-1316", 2003, "MMITM03", "NAME 3 OBJECTS: 1 SECOND TO SAY EACH.", "MMSE", "REGISTRATION", "3", "", "3", 3, "", "", "", "", "", 1.0, "SCREENING 1", -7, "TREATMENT", "2013-08-15", -8], [730, "CDISCPILOT01", "QS", "01-708-1316", 2004, "MMITM04", "SERIAL 7'S. 1 POINT FOR EACH CORRECT.", "MMSE", "ATTENTION AND CALCULATI", "4", "", "4", 4, "", "", "", "", "", 1.0, "SCREENING 1", -7, "TREATMENT", "2013-08-15", -8], [731, "CDISCPILOT01", "QS", "01-708-1316", 2005, "MMITM05", "ASK FOR THE 3 OBJECTS REPEATED ABOVE.", "MMSE", "RECALL", "0", "", "0", 0, "", "", "", "", "", 1.0, "SCREENING 1", -7, "TREATMENT", "2013-08-15", -8], [732, "CDISCPILOT01", "QS", "01-708-1316", 2006, "MMITM06", "NAME A PENCIL, AND WATCH (2 POINTS)", "MMSE", "LANGUAGE", "9", "", "9", 9, "", "", "", "", "", 1.0, "SCREENING 1", -7, "TREATMENT", "2013-08-15", -8], [733, "CDISCPILOT01", "QS", "01-708-1336", 2001, "MMITM01", "WHAT IS THE (YEAR) (SEASON) (DATE) ?", "MMSE", "ORIENTATION", "1", "", "1", 1, "", "", "", "", "", 1.0, "SCREENING 1", -7, "TREATMENT", "2012-11-21", -16], [734, "CDISCPILOT01", "QS", "01-708-1336", 2002, "MMITM02", "WHERE ARE WE: (STATE) (COUNTRY) (TOWN) ?", "MMSE", "ORIENTATION", "4", "", "4", 4, "", "", "", "", "", 1.0, "SCREENING 1", -7, "TREATMENT", "2012-11-21", -16], [735, "CDISCPILOT01", "QS", "01-708-1336", 2003, "MMITM03", "NAME 3 OBJECTS: 1 SECOND TO SAY EACH.", "MMSE", "REGISTRATION", "3", "", "3", 3, "", "", "", "", "", 1.0, "SCREENING 1", -7, "TREATMENT", "2012-11-21", -16], [736, "CDISCPILOT01", "QS", "01-708-1336", 2004, "MMITM04", "SERIAL 7'S. 1 POINT FOR EACH CORRECT.", "MMSE", "ATTENTION AND CALCULATI", "0", "", "0", 0, "", "", "", "", "", 1.0, "SCREENING 1", -7, "TREATMENT", "2012-11-21", -16], [737, "CDISCPILOT01", "QS", "01-708-1336", 2005, "MMITM05", "ASK FOR THE 3 OBJECTS REPEATED ABOVE.", "MMSE", "RECALL", "0", "", "0", 0, "", "", "", "", "", 1.0, "SCREENING 1", -7, "TREATMENT", "2012-11-21", -16], [738, "CDISCPILOT01", "QS", "01-708-1336", 2006, "MMITM06", "NAME A PENCIL, AND WATCH (2 POINTS)", "MMSE", "LANGUAGE", "7", "", "7", 7, "", "", "", "", "", 1.0, "SCREENING 1", -7, "TREATMENT", "2012-11-21", -16], [739, "CDISCPILOT01", "QS", "01-708-1342", 2001, "MMITM01", "WHAT IS THE (YEAR) (SEASON) (DATE) ?", "MMSE", "ORIENTATION", "3", "", "3", 3, "", "", "", "", "", 1.0, "SCREENING 1", -7, "TREATMENT", "2012-12-21", -8], [740, "CDISCPILOT01", "QS", "01-708-1342", 2002, "MMITM02", "WHERE ARE WE: (STATE) (COUNTRY) (TOWN) ?", "MMSE", "ORIENTATION", "4", "", "4", 4, "", "", "", "", "", 1.0, "SCREENING 1", -7, "TREATMENT", "2012-12-21", -8], [741, "CDISCPILOT01", "QS", "01-708-1342", 2003, "MMITM03", "NAME 3 OBJECTS: 1 SECOND TO SAY EACH.", "MMSE", "REGISTRATION", "3", "", "3", 3, "", "", "", "", "", 1.0, "SCREENING 1", -7, "TREATMENT", "2012-12-21", -8], [742, "CDISCPILOT01", "QS", "01-708-1342", 2004, "MMITM04", "SERIAL 7'S. 1 POINT FOR EACH CORRECT.", "MMSE", "ATTENTION AND CALCULATI", "1", "", "1", 1, "", "", "", "", "", 1.0, "SCREENING 1", -7, "TREATMENT", "2012-12-21", -8], [743, "CDISCPILOT01", "QS", "01-708-1342", 2005, "MMITM05", "ASK FOR THE 3 OBJECTS REPEATED ABOVE.", "MMSE", "RECALL", "0", "", "0", 0, "", "", "", "", "", 1.0, "SCREENING 1", -7, "TREATMENT", "2012-12-21", -8], [744, "CDISCPILOT01", "QS", "01-708-1342", 2006, "MMITM06", "NAME A PENCIL, AND WATCH (2 POINTS)", "MMSE", "LANGUAGE", "7", "", "7", 7, "", "", "", "", "", 1.0, "SCREENING 1", -7, "TREATMENT", "2012-12-21", -8], [745, "CDISCPILOT01", "QS", "01-708-1347", 2001, "MMITM01", "WHAT IS THE (YEAR) (SEASON) (DATE) ?", "MMSE", "ORIENTATION", "5", "", "5", 5, "", "", "", "", "", 1.0, "SCREENING 1", -7, "TREATMENT", "2013-04-11", -9], [746, "CDISCPILOT01", "QS", "01-708-1347", 2002, "MMITM02", "WHERE ARE WE: (STATE) (COUNTRY) (TOWN) ?", "MMSE", "ORIENTATION", "5", "", "5", 5, "", "", "", "", "", 1.0, "SCREENING 1", -7, "TREATMENT", "2013-04-11", -9], [747, "CDISCPILOT01", "QS", "01-708-1347", 2003, "MMITM03", "NAME 3 OBJECTS: 1 SECOND TO SAY EACH.", "MMSE", "REGISTRATION", "3", "", "3", 3, "", "", "", "", "", 1.0, "SCREENING 1", -7, "TREATMENT", "2013-04-11", -9], [748, "CDISCPILOT01", "QS", "01-708-1347", 2004, "MMITM04", "SERIAL 7'S. 1 POINT FOR EACH CORRECT.", "MMSE", "ATTENTION AND CALCULATI", "1", "", "1", 1, "", "", "", "", "", 1.0, "SCREENING 1", -7, "TREATMENT", "2013-04-11", -9], [749, "CDISCPILOT01", "QS", "01-708-1347", 2005, "MMITM05", "ASK FOR THE 3 OBJECTS REPEATED ABOVE.", "MMSE", "RECALL", "0", "", "0", 0, "", "", "", "", "", 1.0, "SCREENING 1", -7, "TREATMENT", "2013-04-11", -9], [750, "CDISCPILOT01", "QS", "01-708-1347", 2006, "MMITM06", "NAME A PENCIL, AND WATCH (2 POINTS)", "MMSE", "LANGUAGE", "8", "", "8", 8, "", "", "", "", "", 1.0, "SCREENING 1", -7, "TREATMENT", "2013-04-11", -9], [751, "CDISCPILOT01", "QS", "01-708-1348", 2001, "MMITM01", "WHAT IS THE (YEAR) (SEASON) (DATE) ?", "MMSE", "ORIENTATION", "1", "", "1", 1, "", "", "", "", "", 1.0, "SCREENING 1", -7, "TREATMENT", "2013-07-28", -8], [752, "CDISCPILOT01", "QS", "01-708-1348", 2002, "MMITM02", "WHERE ARE WE: (STATE) (COUNTRY) (TOWN) ?", "MMSE", "ORIENTATION", "1", "", "1", 1, "", "", "", "", "", 1.0, "SCREENING 1", -7, "TREATMENT", "2013-07-28", -8], [753, "CDISCPILOT01", "QS", "01-708-1348", 2003, "MMITM03", "NAME 3 OBJECTS: 1 SECOND TO SAY EACH.", "MMSE", "REGISTRATION", "3", "", "3", 3, "", "", "", "", "", 1.0, "SCREENING 1", -7, "TREATMENT", "2013-07-28", -8], [754, "CDISCPILOT01", "QS", "01-708-1348", 2004, "MMITM04", "SERIAL 7'S. 1 POINT FOR EACH CORRECT.", "MMSE", "ATTENTION AND CALCULATI", "1", "", "1", 1, "", "", "", "", "", 1.0, "SCREENING 1", -7, "TREATMENT", "2013-07-28", -8], [755, "CDISCPILOT01", "QS", "01-708-1348", 2005, "MMITM05", "ASK FOR THE 3 OBJECTS REPEATED ABOVE.", "MMSE", "RECALL", "0", "", "0", 0, "", "", "", "", "", 1.0, "SCREENING 1", -7, "TREATMENT", "2013-07-28", -8], [756, "CDISCPILOT01", "QS", "01-708-1348", 2006, "MMITM06", "NAME A PENCIL, AND WATCH (2 POINTS)", "MMSE", "LANGUAGE", "7", "", "7", 7, "", "", "", "", "", 1.0, "SCREENING 1", -7, "TREATMENT", "2013-07-28", -8], [757, "CDISCPILOT01", "QS", "01-708-1353", 2001, "MMITM01", "WHAT IS THE (YEAR) (SEASON) (DATE) ?", "MMSE", "ORIENTATION", "1", "", "1", 1, "", "", "", "", "", 1.0, "SCREENING 1", -7, "TREATMENT", "2013-06-17", -17], [758, "CDISCPILOT01", "QS", "01-708-1353", 2002, "MMITM02", "WHERE ARE WE: (STATE) (COUNTRY) (TOWN) ?", "MMSE", "ORIENTATION", "2", "", "2", 2, "", "", "", "", "", 1.0, "SCREENING 1", -7, "TREATMENT", "2013-06-17", -17], [759, "CDISCPILOT01", "QS", "01-708-1353", 2003, "MMITM03", "NAME 3 OBJECTS: 1 SECOND TO SAY EACH.", "MMSE", "REGISTRATION", "3", "", "3", 3, "", "", "", "", "", 1.0, "SCREENING 1", -7, "TREATMENT", "2013-06-17", -17], [760, "CDISCPILOT01", "QS", "01-708-1353", 2004, "MMITM04", "SERIAL 7'S. 1 POINT FOR EACH CORRECT.", "MMSE", "ATTENTION AND CALCULATI", "2", "", "2", 2, "", "", "", "", "", 1.0, "SCREENING 1", -7, "TREATMENT", "2013-06-17", -17], [761, "CDISCPILOT01", "QS", "01-708-1353", 2005, "MMITM05", "ASK FOR THE 3 OBJECTS REPEATED ABOVE.", "MMSE", "RECALL", "0", "", "0", 0, "", "", "", "", "", 1.0, "SCREENING 1", -7, "TREATMENT", "2013-06-17", -17], [762, "CDISCPILOT01", "QS", "01-708-1353", 2006, "MMITM06", "NAME A PENCIL, AND WATCH (2 POINTS)", "MMSE", "LANGUAGE", "8", "", "8", 8, "", "", "", "", "", 1.0, "SCREENING 1", -7, "TREATMENT", "2013-06-17", -17], [763, "CDISCPILOT01", "QS", "01-708-1372", 2001, "MMITM01", "WHAT IS THE (YEAR) (SEASON) (DATE) ?", "MMSE", "ORIENTATION", "1", "", "1", 1, "", "", "", "", "", 1.0, "SCREENING 1", -7, "TREATMENT", "2013-04-03", -9], [764, "CDISCPILOT01", "QS", "01-708-1372", 2002, "MMITM02", "WHERE ARE WE: (STATE) (COUNTRY) (TOWN) ?", "MMSE", "ORIENTATION", "1", "", "1", 1, "", "", "", "", "", 1.0, "SCREENING 1", -7, "TREATMENT", "2013-04-03", -9], [765, "CDISCPILOT01", "QS", "01-708-1372", 2003, "MMITM03", "NAME 3 OBJECTS: 1 SECOND TO SAY EACH.", "MMSE", "REGISTRATION", "3", "", "3", 3, "", "", "", "", "", 1.0, "SCREENING 1", -7, "TREATMENT", "2013-04-03", -9], [766, "CDISCPILOT01", "QS", "01-708-1372", 2004, "MMITM04", "SERIAL 7'S. 1 POINT FOR EACH CORRECT.", "MMSE", "ATTENTION AND CALCULATI", "5", "", "5", 5, "", "", "", "", "", 1.0, "SCREENING 1", -7, "TREATMENT", "2013-04-03", -9], [767, "CDISCPILOT01", "QS", "01-708-1372", 2005, "MMITM05", "ASK FOR THE 3 OBJECTS REPEATED ABOVE.", "MMSE", "RECALL", "0", "", "0", 0, "", "", "", "", "", 1.0, "SCREENING 1", -7, "TREATMENT", "2013-04-03", -9], [768, "CDISCPILOT01", "QS", "01-708-1372", 2006, "MMITM06", "NAME A PENCIL, AND WATCH (2 POINTS)", "MMSE", "LANGUAGE", "7", "", "7", 7, "", "", "", "", "", 1.0, "SCREENING 1", -7, "TREATMENT", "2013-04-03", -9], [769, "CDISCPILOT01", "QS", "01-708-1378", 2001, "MMITM01", "WHAT IS THE (YEAR) (SEASON) (DATE) ?", "MMSE", "ORIENTATION", "3", "", "3", 3, "", "", "", "", "", 1.0, "SCREENING 1", -7, "TREATMENT", "2013-08-24", -10], [770, "CDISCPILOT01", "QS", "01-708-1378", 2002, "MMITM02", "WHERE ARE WE: (STATE) (COUNTRY) (TOWN) ?", "MMSE", "ORIENTATION", "5", "", "5", 5, "", "", "", "", "", 1.0, "SCREENING 1", -7, "TREATMENT", "2013-08-24", -10], [771, "CDISCPILOT01", "QS", "01-708-1378", 2003, "MMITM03", "NAME 3 OBJECTS: 1 SECOND TO SAY EACH.", "MMSE", "REGISTRATION", "3", "", "3", 3, "", "", "", "", "", 1.0, "SCREENING 1", -7, "TREATMENT", "2013-08-24", -10], [772, "CDISCPILOT01", "QS", "01-708-1378", 2004, "MMITM04", "SERIAL 7'S. 1 POINT FOR EACH CORRECT.", "MMSE", "ATTENTION AND CALCULATI", "1", "", "1", 1, "", "", "", "", "", 1.0, "SCREENING 1", -7, "TREATMENT", "2013-08-24", -10], [773, "CDISCPILOT01", "QS", "01-708-1378", 2005, "MMITM05", "ASK FOR THE 3 OBJECTS REPEATED ABOVE.", "MMSE", "RECALL", "1", "", "1", 1, "", "", "", "", "", 1.0, "SCREENING 1", -7, "TREATMENT", "2013-08-24", -10], [774, "CDISCPILOT01", "QS", "01-708-1378", 2006, "MMITM06", "NAME A PENCIL, AND WATCH (2 POINTS)", "MMSE", "LANGUAGE", "7", "", "7", 7, "", "", "", "", "", 1.0, "SCREENING 1", -7, "TREATMENT", "2013-08-24", -10], [775, "CDISCPILOT01", "QS", "01-708-1406", 2001, "MMITM01", "WHAT IS THE (YEAR) (SEASON) (DATE) ?", "MMSE", "ORIENTATION", "1", "", "1", 1, "", "", "", "", "", 1.0, "SCREENING 1", -7, "TREATMENT", "2013-12-06", -20], [776, "CDISCPILOT01", "QS", "01-708-1406", 2002, "MMITM02", "WHERE ARE WE: (STATE) (COUNTRY) (TOWN) ?", "MMSE", "ORIENTATION", "2", "", "2", 2, "", "", "", "", "", 1.0, "SCREENING 1", -7, "TREATMENT", "2013-12-06", -20], [777, "CDISCPILOT01", "QS", "01-708-1406", 2003, "MMITM03", "NAME 3 OBJECTS: 1 SECOND TO SAY EACH.", "MMSE", "REGISTRATION", "3", "", "3", 3, "", "", "", "", "", 1.0, "SCREENING 1", -7, "TREATMENT", "2013-12-06", -20], [778, "CDISCPILOT01", "QS", "01-708-1406", 2004, "MMITM04", "SERIAL 7'S. 1 POINT FOR EACH CORRECT.", "MMSE", "ATTENTION AND CALCULATI", "3", "", "3", 3, "", "", "", "", "", 1.0, "SCREENING 1", -7, "TREATMENT", "2013-12-06", -20], [779, "CDISCPILOT01", "QS", "01-708-1406", 2005, "MMITM05", "ASK FOR THE 3 OBJECTS REPEATED ABOVE.", "MMSE", "RECALL", "0", "", "0", 0, "", "", "", "", "", 1.0, "SCREENING 1", -7, "TREATMENT", "2013-12-06", -20], [780, "CDISCPILOT01", "QS", "01-708-1406", 2006, "MMITM06", "NAME A PENCIL, AND WATCH (2 POINTS)", "MMSE", "LANGUAGE", "6", "", "6", 6, "", "", "", "", "", 1.0, "SCREENING 1", -7, "TREATMENT", "2013-12-06", -20], [781, "CDISCPILOT01", "QS", "01-708-1428", 2001, "MMITM01", "WHAT IS THE (YEAR) (SEASON) (DATE) ?", "MMSE", "ORIENTATION", "2", "", "2", 2, "", "", "", "", "", 1.0, "SCREENING 1", -7, "TREATMENT", "2013-11-02", -7], [782, "CDISCPILOT01", "QS", "01-708-1428", 2002, "MMITM02", "WHERE ARE WE: (STATE) (COUNTRY) (TOWN) ?", "MMSE", "ORIENTATION", "3", "", "3", 3, "", "", "", "", "", 1.0, "SCREENING 1", -7, "TREATMENT", "2013-11-02", -7], [783, "CDISCPILOT01", "QS", "01-708-1428", 2003, "MMITM03", "NAME 3 OBJECTS: 1 SECOND TO SAY EACH.", "MMSE", "REGISTRATION", "3", "", "3", 3, "", "", "", "", "", 1.0, "SCREENING 1", -7, "TREATMENT", "2013-11-02", -7], [784, "CDISCPILOT01", "QS", "01-708-1428", 2004, "MMITM04", "SERIAL 7'S. 1 POINT FOR EACH CORRECT.", "MMSE", "ATTENTION AND CALCULATI", "1", "", "1", 1, "", "", "", "", "", 1.0, "SCREENING 1", -7, "TREATMENT", "2013-11-02", -7], [785, "CDISCPILOT01", "QS", "01-708-1428", 2005, "MMITM05", "ASK FOR THE 3 OBJECTS REPEATED ABOVE.", "MMSE", "RECALL", "1", "", "1", 1, "", "", "", "", "", 1.0, "SCREENING 1", -7, "TREATMENT", "2013-11-02", -7], [786, "CDISCPILOT01", "QS", "01-708-1428", 2006, "MMITM06", "NAME A PENCIL, AND WATCH (2 POINTS)", "MMSE", "LANGUAGE", "9", "", "9", 9, "", "", "", "", "", 1.0, "SCREENING 1", -7, "TREATMENT", "2013-11-02", -7], [787, "CDISCPILOT01", "QS", "01-709-1001", 2001, "MMITM01", "WHAT IS THE (YEAR) (SEASON) (DATE) ?", "MMSE", "ORIENTATION", "2", "", "2", 2, "", "", "", "", "", 1.0, "SCREENING 1", -7, "TREATMENT", "2013-09-20", -18], [788, "CDISCPILOT01", "QS", "01-709-1001", 2002, "MMITM02", "WHERE ARE WE: (STATE) (COUNTRY) (TOWN) ?", "MMSE", "ORIENTATION", "2", "", "2", 2, "", "", "", "", "", 1.0, "SCREENING 1", -7, "TREATMENT", "2013-09-20", -18], [789, "CDISCPILOT01", "QS", "01-709-1001", 2003, "MMITM03", "NAME 3 OBJECTS: 1 SECOND TO SAY EACH.", "MMSE", "REGISTRATION", "3", "", "3", 3, "", "", "", "", "", 1.0, "SCREENING 1", -7, "TREATMENT", "2013-09-20", -18], [790, "CDISCPILOT01", "QS", "01-709-1001", 2004, "MMITM04", "SERIAL 7'S. 1 POINT FOR EACH CORRECT.", "MMSE", "ATTENTION AND CALCULATI", "2", "", "2", 2, "", "", "", "", "", 1.0, "SCREENING 1", -7, "TREATMENT", "2013-09-20", -18], [791, "CDISCPILOT01", "QS", "01-709-1001", 2005, "MMITM05", "ASK FOR THE 3 OBJECTS REPEATED ABOVE.", "MMSE", "RECALL", "0", "", "0", 0, "", "", "", "", "", 1.0, "SCREENING 1", -7, "TREATMENT", "2013-09-20", -18], [792, "CDISCPILOT01", "QS", "01-709-1001", 2006, "MMITM06", "NAME A PENCIL, AND WATCH (2 POINTS)", "MMSE", "LANGUAGE", "6", "", "6", 6, "", "", "", "", "", 1.0, "SCREENING 1", -7, "TREATMENT", "2013-09-20", -18], [793, "CDISCPILOT01", "QS", "01-709-1007", 2001, "MMITM01", "WHAT IS THE (YEAR) (SEASON) (DATE) ?", "MMSE", "ORIENTATION", "0", "", "0", 0, "", "", "", "", "", 1.0, "SCREENING 1", -7, "TREATMENT", "2012-07-21", -10], [794, "CDISCPILOT01", "QS", "01-709-1007", 2002, "MMITM02", "WHERE ARE WE: (STATE) (COUNTRY) (TOWN) ?", "MMSE", "ORIENTATION", "1", "", "1", 1, "", "", "", "", "", 1.0, "SCREENING 1", -7, "TREATMENT", "2012-07-21", -10], [795, "CDISCPILOT01", "QS", "01-709-1007", 2003, "MMITM03", "NAME 3 OBJECTS: 1 SECOND TO SAY EACH.", "MMSE", "REGISTRATION", "1", "", "1", 1, "", "", "", "", "", 1.0, "SCREENING 1", -7, "TREATMENT", "2012-07-21", -10], [796, "CDISCPILOT01", "QS", "01-709-1007", 2004, "MMITM04", "SERIAL 7'S. 1 POINT FOR EACH CORRECT.", "MMSE", "ATTENTION AND CALCULATI", "2", "", "2", 2, "", "", "", "", "", 1.0, "SCREENING 1", -7, "TREATMENT", "2012-07-21", -10], [797, "CDISCPILOT01", "QS", "01-709-1007", 2005, "MMITM05", "ASK FOR THE 3 OBJECTS REPEATED ABOVE.", "MMSE", "RECALL", "0", "", "0", 0, "", "", "", "", "", 1.0, "SCREENING 1", -7, "TREATMENT", "2012-07-21", -10], [798, "CDISCPILOT01", "QS", "01-709-1007", 2006, "MMITM06", "NAME A PENCIL, AND WATCH (2 POINTS)", "MMSE", "LANGUAGE", "6", "", "6", 6, "", "", "", "", "", 1.0, "SCREENING 1", -7, "TREATMENT", "2012-07-21", -10], [799, "CDISCPILOT01", "QS", "01-709-1020", 2001, "MMITM01", "WHAT IS THE (YEAR) (SEASON) (DATE) ?", "MMSE", "ORIENTATION", "0", "", "0", 0, "", "", "", "", "", 1.0, "SCREENING 1", -7, "TREATMENT", "2012-11-22", -9], [800, "CDISCPILOT01", "QS", "01-709-1020", 2002, "MMITM02", "WHERE ARE WE: (STATE) (COUNTRY) (TOWN) ?", "MMSE", "ORIENTATION", "3", "", "3", 3, "", "", "", "", "", 1.0, "SCREENING 1", -7, "TREATMENT", "2012-11-22", -9], [801, "CDISCPILOT01", "QS", "01-709-1020", 2003, "MMITM03", "NAME 3 OBJECTS: 1 SECOND TO SAY EACH.", "MMSE", "REGISTRATION", "3", "", "3", 3, "", "", "", "", "", 1.0, "SCREENING 1", -7, "TREATMENT", "2012-11-22", -9], [802, "CDISCPILOT01", "QS", "01-709-1020", 2004, "MMITM04", "SERIAL 7'S. 1 POINT FOR EACH CORRECT.", "MMSE", "ATTENTION AND CALCULATI", "2", "", "2", 2, "", "", "", "", "", 1.0, "SCREENING 1", -7, "TREATMENT", "2012-11-22", -9], [803, "CDISCPILOT01", "QS", "01-709-1020", 2005, "MMITM05", "ASK FOR THE 3 OBJECTS REPEATED ABOVE.", "MMSE", "RECALL", "0", "", "0", 0, "", "", "", "", "", 1.0, "SCREENING 1", -7, "TREATMENT", "2012-11-22", -9], [804, "CDISCPILOT01", "QS", "01-709-1020", 2006, "MMITM06", "NAME A PENCIL, AND WATCH (2 POINTS)", "MMSE", "LANGUAGE", "7", "", "7", 7, "", "", "", "", "", 1.0, "SCREENING 1", -7, "TREATMENT", "2012-11-22", -9], [805, "CDISCPILOT01", "QS", "01-709-1029", 2001, "MMITM01", "WHAT IS THE (YEAR) (SEASON) (DATE) ?", "MMSE", "ORIENTATION", "2", "", "2", 2, "", "", "", "", "", 1.0, "SCREENING 1", -7, "TREATMENT", "2012-12-10", -15], [806, "CDISCPILOT01", "QS", "01-709-1029", 2002, "MMITM02", "WHERE ARE WE: (STATE) (COUNTRY) (TOWN) ?", "MMSE", "ORIENTATION", "2", "", "2", 2, "", "", "", "", "", 1.0, "SCREENING 1", -7, "TREATMENT", "2012-12-10", -15], [807, "CDISCPILOT01", "QS", "01-709-1029", 2003, "MMITM03", "NAME 3 OBJECTS: 1 SECOND TO SAY EACH.", "MMSE", "REGISTRATION", "3", "", "3", 3, "", "", "", "", "", 1.0, "SCREENING 1", -7, "TREATMENT", "2012-12-10", -15], [808, "CDISCPILOT01", "QS", "01-709-1029", 2004, "MMITM04", "SERIAL 7'S. 1 POINT FOR EACH CORRECT.", "MMSE", "ATTENTION AND CALCULATI", "2", "", "2", 2, "", "", "", "", "", 1.0, "SCREENING 1", -7, "TREATMENT", "2012-12-10", -15], [809, "CDISCPILOT01", "QS", "01-709-1029", 2005, "MMITM05", "ASK FOR THE 3 OBJECTS REPEATED ABOVE.", "MMSE", "RECALL", "0", "", "0", 0, "", "", "", "", "", 1.0, "SCREENING 1", -7, "TREATMENT", "2012-12-10", -15], [810, "CDISCPILOT01", "QS", "01-709-1029", 2006, "MMITM06", "NAME A PENCIL, AND WATCH (2 POINTS)", "MMSE", "LANGUAGE", "7", "", "7", 7, "", "", "", "", "", 1.0, "SCREENING 1", -7, "TREATMENT", "2012-12-10", -15], [811, "CDISCPILOT01", "QS", "01-709-1081", 2001, "MMITM01", "WHAT IS THE (YEAR) (SEASON) (DATE) ?", "MMSE", "ORIENTATION", "4", "", "4", 4, "", "", "", "", "", 1.0, "SCREENING 1", -7, "TREATMENT", "2014-01-09", -9], [812, "CDISCPILOT01", "QS", "01-709-1081", 2002, "MMITM02", "WHERE ARE WE: (STATE) (COUNTRY) (TOWN) ?", "MMSE", "ORIENTATION", "2", "", "2", 2, "", "", "", "", "", 1.0, "SCREENING 1", -7, "TREATMENT", "2014-01-09", -9], [813, "CDISCPILOT01", "QS", "01-709-1081", 2003, "MMITM03", "NAME 3 OBJECTS: 1 SECOND TO SAY EACH.", "MMSE", "REGISTRATION", "3", "", "3", 3, "", "", "", "", "", 1.0, "SCREENING 1", -7, "TREATMENT", "2014-01-09", -9], [814, "CDISCPILOT01", "QS", "01-709-1081", 2004, "MMITM04", "SERIAL 7'S. 1 POINT FOR EACH CORRECT.", "MMSE", "ATTENTION AND CALCULATI", "4", "", "4", 4, "", "", "", "", "", 1.0, "SCREENING 1", -7, "TREATMENT", "2014-01-09", -9], [815, "CDISCPILOT01", "QS", "01-709-1081", 2005, "MMITM05", "ASK FOR THE 3 OBJECTS REPEATED ABOVE.", "MMSE", "RECALL", "0", "", "0", 0, "", "", "", "", "", 1.0, "SCREENING 1", -7, "TREATMENT", "2014-01-09", -9], [816, "CDISCPILOT01", "QS", "01-709-1081", 2006, "MMITM06", "NAME A PENCIL, AND WATCH (2 POINTS)", "MMSE", "LANGUAGE", "8", "", "8", 8, "", "", "", "", "", 1.0, "SCREENING 1", -7, "TREATMENT", "2014-01-09", -9], [817, "CDISCPILOT01", "QS", "01-709-1088", 2001, "MMITM01", "WHAT IS THE (YEAR) (SEASON) (DATE) ?", "MMSE", "ORIENTATION", "5", "", "5", 5, "", "", "", "", "", 1.0, "SCREENING 1", -7, "TREATMENT", "2014-03-30", -13], [818, "CDISCPILOT01", "QS", "01-709-1088", 2002, "MMITM02", "WHERE ARE WE: (STATE) (COUNTRY) (TOWN) ?", "MMSE", "ORIENTATION", "4", "", "4", 4, "", "", "", "", "", 1.0, "SCREENING 1", -7, "TREATMENT", "2014-03-30", -13], [819, "CDISCPILOT01", "QS", "01-709-1088", 2003, "MMITM03", "NAME 3 OBJECTS: 1 SECOND TO SAY EACH.", "MMSE", "REGISTRATION", "3", "", "3", 3, "", "", "", "", "", 1.0, "SCREENING 1", -7, "TREATMENT", "2014-03-30", -13], [820, "CDISCPILOT01", "QS", "01-709-1088", 2004, "MMITM04", "SERIAL 7'S. 1 POINT FOR EACH CORRECT.", "MMSE", "ATTENTION AND CALCULATI", "3", "", "3", 3, "", "", "", "", "", 1.0, "SCREENING 1", -7, "TREATMENT", "2014-03-30", -13], [821, "CDISCPILOT01", "QS", "01-709-1088", 2005, "MMITM05", "ASK FOR THE 3 OBJECTS REPEATED ABOVE.", "MMSE", "RECALL", "1", "", "1", 1, "", "", "", "", "", 1.0, "SCREENING 1", -7, "TREATMENT", "2014-03-30", -13], [822, "CDISCPILOT01", "QS", "01-709-1088", 2006, "MMITM06", "NAME A PENCIL, AND WATCH (2 POINTS)", "MMSE", "LANGUAGE", "7", "", "7", 7, "", "", "", "", "", 1.0, "SCREENING 1", -7, "TREATMENT", "2014-03-30", -13], [823, "CDISCPILOT01", "QS", "01-709-1099", 2001, "MMITM01", "WHAT IS THE (YEAR) (SEASON) (DATE) ?", "MMSE", "ORIENTATION", "0", "", "0", 0, "", "", "", "", "", 1.0, "SCREENING 1", -7, "TREATMENT", "2013-10-14", -11], [824, "CDISCPILOT01", "QS", "01-709-1099", 2002, "MMITM02", "WHERE ARE WE: (STATE) (COUNTRY) (TOWN) ?", "MMSE", "ORIENTATION", "2", "", "2", 2, "", "", "", "", "", 1.0, "SCREENING 1", -7, "TREATMENT", "2013-10-14", -11], [825, "CDISCPILOT01", "QS", "01-709-1099", 2003, "MMITM03", "NAME 3 OBJECTS: 1 SECOND TO SAY EACH.", "MMSE", "REGISTRATION", "3", "", "3", 3, "", "", "", "", "", 1.0, "SCREENING 1", -7, "TREATMENT", "2013-10-14", -11], [826, "CDISCPILOT01", "QS", "01-709-1099", 2004, "MMITM04", "SERIAL 7'S. 1 POINT FOR EACH CORRECT.", "MMSE", "ATTENTION AND CALCULATI", "0", "", "0", 0, "", "", "", "", "", 1.0, "SCREENING 1", -7, "TREATMENT", "2013-10-14", -11], [827, "CDISCPILOT01", "QS", "01-709-1099", 2005, "MMITM05", "ASK FOR THE 3 OBJECTS REPEATED ABOVE.", "MMSE", "RECALL", "0", "", "0", 0, "", "", "", "", "", 1.0, "SCREENING 1", -7, "TREATMENT", "2013-10-14", -11], [828, "CDISCPILOT01", "QS", "01-709-1099", 2006, "MMITM06", "NAME A PENCIL, AND WATCH (2 POINTS)", "MMSE", "LANGUAGE", "6", "", "6", 6, "", "", "", "", "", 1.0, "SCREENING 1", -7, "TREATMENT", "2013-10-14", -11], [829, "CDISCPILOT01", "QS", "01-709-1102", 2001, "MMITM01", "WHAT IS THE (YEAR) (SEASON) (DATE) ?", "MMSE", "ORIENTATION", "1", "", "1", 1, "", "", "", "", "", 1.0, "SCREENING 1", -7, "TREATMENT", "2013-01-07", -8], [830, "CDISCPILOT01", "QS", "01-709-1102", 2002, "MMITM02", "WHERE ARE WE: (STATE) (COUNTRY) (TOWN) ?", "MMSE", "ORIENTATION", "2", "", "2", 2, "", "", "", "", "", 1.0, "SCREENING 1", -7, "TREATMENT", "2013-01-07", -8], [831, "CDISCPILOT01", "QS", "01-709-1102", 2003, "MMITM03", "NAME 3 OBJECTS: 1 SECOND TO SAY EACH.", "MMSE", "REGISTRATION", "3", "", "3", 3, "", "", "", "", "", 1.0, "SCREENING 1", -7, "TREATMENT", "2013-01-07", -8], [832, "CDISCPILOT01", "QS", "01-709-1102", 2004, "MMITM04", "SERIAL 7'S. 1 POINT FOR EACH CORRECT.", "MMSE", "ATTENTION AND CALCULATI", "1", "", "1", 1, "", "", "", "", "", 1.0, "SCREENING 1", -7, "TREATMENT", "2013-01-07", -8], [833, "CDISCPILOT01", "QS", "01-709-1102", 2005, "MMITM05", "ASK FOR THE 3 OBJECTS REPEATED ABOVE.", "MMSE", "RECALL", "2", "", "2", 2, "", "", "", "", "", 1.0, "SCREENING 1", -7, "TREATMENT", "2013-01-07", -8], [834, "CDISCPILOT01", "QS", "01-709-1102", 2006, "MMITM06", "NAME A PENCIL, AND WATCH (2 POINTS)", "MMSE", "LANGUAGE", "7", "", "7", 7, "", "", "", "", "", 1.0, "SCREENING 1", -7, "TREATMENT", "2013-01-07", -8], [835, "CDISCPILOT01", "QS", "01-709-1168", 2001, "MMITM01", "WHAT IS THE (YEAR) (SEASON) (DATE) ?", "MMSE", "ORIENTATION", "2", "", "2", 2, "", "", "", "", "", 1.0, "SCREENING 1", -7, "TREATMENT", "2013-07-25", -8], [836, "CDISCPILOT01", "QS", "01-709-1168", 2002, "MMITM02", "WHERE ARE WE: (STATE) (COUNTRY) (TOWN) ?", "MMSE", "ORIENTATION", "3", "", "3", 3, "", "", "", "", "", 1.0, "SCREENING 1", -7, "TREATMENT", "2013-07-25", -8], [837, "CDISCPILOT01", "QS", "01-709-1168", 2003, "MMITM03", "NAME 3 OBJECTS: 1 SECOND TO SAY EACH.", "MMSE", "REGISTRATION", "3", "", "3", 3, "", "", "", "", "", 1.0, "SCREENING 1", -7, "TREATMENT", "2013-07-25", -8], [838, "CDISCPILOT01", "QS", "01-709-1168", 2004, "MMITM04", "SERIAL 7'S. 1 POINT FOR EACH CORRECT.", "MMSE", "ATTENTION AND CALCULATI", "3", "", "3", 3, "", "", "", "", "", 1.0, "SCREENING 1", -7, "TREATMENT", "2013-07-25", -8], [839, "CDISCPILOT01", "QS", "01-709-1168", 2005, "MMITM05", "ASK FOR THE 3 OBJECTS REPEATED ABOVE.", "MMSE", "RECALL", "0", "", "0", 0, "", "", "", "", "", 1.0, "SCREENING 1", -7, "TREATMENT", "2013-07-25", -8], [840, "CDISCPILOT01", "QS", "01-709-1168", 2006, "MMITM06", "NAME A PENCIL, AND WATCH (2 POINTS)", "MMSE", "LANGUAGE", "9", "", "9", 9, "", "", "", "", "", 1.0, "SCREENING 1", -7, "TREATMENT", "2013-07-25", -8], [841, "CDISCPILOT01", "QS", "01-709-1217", 2001, "MMITM01", "WHAT IS THE (YEAR) (SEASON) (DATE) ?", "MMSE", "ORIENTATION", "1", "", "1", 1, "", "", "", "", "", 1.0, "SCREENING 1", -7, "TREATMENT", "2013-02-16", -16], [842, "CDISCPILOT01", "QS", "01-709-1217", 2002, "MMITM02", "WHERE ARE WE: (STATE) (COUNTRY) (TOWN) ?", "MMSE", "ORIENTATION", "1", "", "1", 1, "", "", "", "", "", 1.0, "SCREENING 1", -7, "TREATMENT", "2013-02-16", -16], [843, "CDISCPILOT01", "QS", "01-709-1217", 2003, "MMITM03", "NAME 3 OBJECTS: 1 SECOND TO SAY EACH.", "MMSE", "REGISTRATION", "3", "", "3", 3, "", "", "", "", "", 1.0, "SCREENING 1", -7, "TREATMENT", "2013-02-16", -16], [844, "CDISCPILOT01", "QS", "01-709-1217", 2004, "MMITM04", "SERIAL 7'S. 1 POINT FOR EACH CORRECT.", "MMSE", "ATTENTION AND CALCULATI", "3", "", "3", 3, "", "", "", "", "", 1.0, "SCREENING 1", -7, "TREATMENT", "2013-02-16", -16], [845, "CDISCPILOT01", "QS", "01-709-1217", 2005, "MMITM05", "ASK FOR THE 3 OBJECTS REPEATED ABOVE.", "MMSE", "RECALL", "0", "", "0", 0, "", "", "", "", "", 1.0, "SCREENING 1", -7, "TREATMENT", "2013-02-16", -16], [846, "CDISCPILOT01", "QS", "01-709-1217", 2006, "MMITM06", "NAME A PENCIL, AND WATCH (2 POINTS)", "MMSE", "LANGUAGE", "6", "", "6", 6, "", "", "", "", "", 1.0, "SCREENING 1", -7, "TREATMENT", "2013-02-16", -16], [847, "CDISCPILOT01", "QS", "01-709-1238", 2001, "MMITM01", "WHAT IS THE (YEAR) (SEASON) (DATE) ?", "MMSE", "ORIENTATION", "5", "", "5", 5, "", "", "", "", "", 1.0, "SCREENING 1", -7, "TREATMENT", "2013-05-02", -13], [848, "CDISCPILOT01", "QS", "01-709-1238", 2002, "MMITM02", "WHERE ARE WE: (STATE) (COUNTRY) (TOWN) ?", "MMSE", "ORIENTATION", "2", "", "2", 2, "", "", "", "", "", 1.0, "SCREENING 1", -7, "TREATMENT", "2013-05-02", -13], [849, "CDISCPILOT01", "QS", "01-709-1238", 2003, "MMITM03", "NAME 3 OBJECTS: 1 SECOND TO SAY EACH.", "MMSE", "REGISTRATION", "3", "", "3", 3, "", "", "", "", "", 1.0, "SCREENING 1", -7, "TREATMENT", "2013-05-02", -13], [850, "CDISCPILOT01", "QS", "01-709-1238", 2004, "MMITM04", "SERIAL 7'S. 1 POINT FOR EACH CORRECT.", "MMSE", "ATTENTION AND CALCULATI", "5", "", "5", 5, "", "", "", "", "", 1.0, "SCREENING 1", -7, "TREATMENT", "2013-05-02", -13], [851, "CDISCPILOT01", "QS", "01-709-1238", 2005, "MMITM05", "ASK FOR THE 3 OBJECTS REPEATED ABOVE.", "MMSE", "RECALL", "1", "", "1", 1, "", "", "", "", "", 1.0, "SCREENING 1", -7, "TREATMENT", "2013-05-02", -13], [852, "CDISCPILOT01", "QS", "01-709-1238", 2006, "MMITM06", "NAME A PENCIL, AND WATCH (2 POINTS)", "MMSE", "LANGUAGE", "8", "", "8", 8, "", "", "", "", "", 1.0, "SCREENING 1", -7, "TREATMENT", "2013-05-02", -13], [853, "CDISCPILOT01", "QS", "01-709-1259", 2001, "MMITM01", "WHAT IS THE (YEAR) (SEASON) (DATE) ?", "MMSE", "ORIENTATION", "0", "", "0", 0, "", "", "", "", "", 1.0, "SCREENING 1", -7, "TREATMENT", "2013-01-13", -13], [854, "CDISCPILOT01", "QS", "01-709-1259", 2002, "MMITM02", "WHERE ARE WE: (STATE) (COUNTRY) (TOWN) ?", "MMSE", "ORIENTATION", "3", "", "3", 3, "", "", "", "", "", 1.0, "SCREENING 1", -7, "TREATMENT", "2013-01-13", -13], [855, "CDISCPILOT01", "QS", "01-709-1259", 2003, "MMITM03", "NAME 3 OBJECTS: 1 SECOND TO SAY EACH.", "MMSE", "REGISTRATION", "3", "", "3", 3, "", "", "", "", "", 1.0, "SCREENING 1", -7, "TREATMENT", "2013-01-13", -13], [856, "CDISCPILOT01", "QS", "01-709-1259", 2004, "MMITM04", "SERIAL 7'S. 1 POINT FOR EACH CORRECT.", "MMSE", "ATTENTION AND CALCULATI", "5", "", "5", 5, "", "", "", "", "", 1.0, "SCREENING 1", -7, "TREATMENT", "2013-01-13", -13], [857, "CDISCPILOT01", "QS", "01-709-1259", 2005, "MMITM05", "ASK FOR THE 3 OBJECTS REPEATED ABOVE.", "MMSE", "RECALL", "0", "", "0", 0, "", "", "", "", "", 1.0, "SCREENING 1", -7, "TREATMENT", "2013-01-13", -13], [858, "CDISCPILOT01", "QS", "01-709-1259", 2006, "MMITM06", "NAME A PENCIL, AND WATCH (2 POINTS)", "MMSE", "LANGUAGE", "9", "", "9", 9, "", "", "", "", "", 1.0, "SCREENING 1", -7, "TREATMENT", "2013-01-13", -13], [859, "CDISCPILOT01", "QS", "01-709-1285", 2001, "MMITM01", "WHAT IS THE (YEAR) (SEASON) (DATE) ?", "MMSE", "ORIENTATION", "1", "", "1", 1, "", "", "", "", "", 1.0, "SCREENING 1", -7, "TREATMENT", "2013-03-17", -7], [860, "CDISCPILOT01", "QS", "01-709-1285", 2002, "MMITM02", "WHERE ARE WE: (STATE) (COUNTRY) (TOWN) ?", "MMSE", "ORIENTATION", "4", "", "4", 4, "", "", "", "", "", 1.0, "SCREENING 1", -7, "TREATMENT", "2013-03-17", -7], [861, "CDISCPILOT01", "QS", "01-709-1285", 2003, "MMITM03", "NAME 3 OBJECTS: 1 SECOND TO SAY EACH.", "MMSE", "REGISTRATION", "3", "", "3", 3, "", "", "", "", "", 1.0, "SCREENING 1", -7, "TREATMENT", "2013-03-17", -7], [862, "CDISCPILOT01", "QS", "01-709-1285", 2004, "MMITM04", "SERIAL 7'S. 1 POINT FOR EACH CORRECT.", "MMSE", "ATTENTION AND CALCULATI", "0", "", "0", 0, "", "", "", "", "", 1.0, "SCREENING 1", -7, "TREATMENT", "2013-03-17", -7], [863, "CDISCPILOT01", "QS", "01-709-1285", 2005, "MMITM05", "ASK FOR THE 3 OBJECTS REPEATED ABOVE.", "MMSE", "RECALL", "1", "", "1", 1, "", "", "", "", "", 1.0, "SCREENING 1", -7, "TREATMENT", "2013-03-17", -7], [864, "CDISCPILOT01", "QS", "01-709-1285", 2006, "MMITM06", "NAME A PENCIL, AND WATCH (2 POINTS)", "MMSE", "LANGUAGE", "7", "", "7", 7, "", "", "", "", "", 1.0, "SCREENING 1", -7, "TREATMENT", "2013-03-17", -7], [865, "CDISCPILOT01", "QS", "01-709-1301", 2001, "MMITM01", "WHAT IS THE (YEAR) (SEASON) (DATE) ?", "MMSE", "ORIENTATION", "1", "", "1", 1, "", "", "", "", "", 1.0, "SCREENING 1", -7, "TREATMENT", "2013-07-14", -5], [866, "CDISCPILOT01", "QS", "01-709-1301", 2002, "MMITM02", "WHERE ARE WE: (STATE) (COUNTRY) (TOWN) ?", "MMSE", "ORIENTATION", "1", "", "1", 1, "", "", "", "", "", 1.0, "SCREENING 1", -7, "TREATMENT", "2013-07-14", -5], [867, "CDISCPILOT01", "QS", "01-709-1301", 2003, "MMITM03", "NAME 3 OBJECTS: 1 SECOND TO SAY EACH.", "MMSE", "REGISTRATION", "3", "", "3", 3, "", "", "", "", "", 1.0, "SCREENING 1", -7, "TREATMENT", "2013-07-14", -5], [868, "CDISCPILOT01", "QS", "01-709-1301", 2004, "MMITM04", "SERIAL 7'S. 1 POINT FOR EACH CORRECT.", "MMSE", "ATTENTION AND CALCULATI", "0", "", "0", 0, "", "", "", "", "", 1.0, "SCREENING 1", -7, "TREATMENT", "2013-07-14", -5], [869, "CDISCPILOT01", "QS", "01-709-1301", 2005, "MMITM05", "ASK FOR THE 3 OBJECTS REPEATED ABOVE.", "MMSE", "RECALL", "0", "", "0", 0, "", "", "", "", "", 1.0, "SCREENING 1", -7, "TREATMENT", "2013-07-14", -5], [870, "CDISCPILOT01", "QS", "01-709-1301", 2006, "MMITM06", "NAME A PENCIL, AND WATCH (2 POINTS)", "MMSE", "LANGUAGE", "5", "", "5", 5, "", "", "", "", "", 1.0, "SCREENING 1", -7, "TREATMENT", "2013-07-14", -5], [871, "CDISCPILOT01", "QS", "01-709-1306", 2001, "MMITM01", "WHAT IS THE (YEAR) (SEASON) (DATE) ?", "MMSE", "ORIENTATION", "4", "", "4", 4, "", "", "", "", "", 1.0, "SCREENING 1", -7, "TREATMENT", "2014-01-19", -15], [872, "CDISCPILOT01", "QS", "01-709-1306", 2002, "MMITM02", "WHERE ARE WE: (STATE) (COUNTRY) (TOWN) ?", "MMSE", "ORIENTATION", "3", "", "3", 3, "", "", "", "", "", 1.0, "SCREENING 1", -7, "TREATMENT", "2014-01-19", -15], [873, "CDISCPILOT01", "QS", "01-709-1306", 2003, "MMITM03", "NAME 3 OBJECTS: 1 SECOND TO SAY EACH.", "MMSE", "REGISTRATION", "3", "", "3", 3, "", "", "", "", "", 1.0, "SCREENING 1", -7, "TREATMENT", "2014-01-19", -15], [874, "CDISCPILOT01", "QS", "01-709-1306", 2004, "MMITM04", "SERIAL 7'S. 1 POINT FOR EACH CORRECT.", "MMSE", "ATTENTION AND CALCULATI", "4", "", "4", 4, "", "", "", "", "", 1.0, "SCREENING 1", -7, "TREATMENT", "2014-01-19", -15], [875, "CDISCPILOT01", "QS", "01-709-1306", 2005, "MMITM05", "ASK FOR THE 3 OBJECTS REPEATED ABOVE.", "MMSE", "RECALL", "0", "", "0", 0, "", "", "", "", "", 1.0, "SCREENING 1", -7, "TREATMENT", "2014-01-19", -15], [876, "CDISCPILOT01", "QS", "01-709-1306", 2006, "MMITM06", "NAME A PENCIL, AND WATCH (2 POINTS)", "MMSE", "LANGUAGE", "7", "", "7", 7, "", "", "", "", "", 1.0, "SCREENING 1", -7, "TREATMENT", "2014-01-19", -15], [877, "CDISCPILOT01", "QS", "01-709-1309", 2001, "MMITM01", "WHAT IS THE (YEAR) (SEASON) (DATE) ?", "MMSE", "ORIENTATION", "1", "", "1", 1, "", "", "", "", "", 1.0, "SCREENING 1", -7, "TREATMENT", "2013-06-09", -10], [878, "CDISCPILOT01", "QS", "01-709-1309", 2002, "MMITM02", "WHERE ARE WE: (STATE) (COUNTRY) (TOWN) ?", "MMSE", "ORIENTATION", "3", "", "3", 3, "", "", "", "", "", 1.0, "SCREENING 1", -7, "TREATMENT", "2013-06-09", -10], [879, "CDISCPILOT01", "QS", "01-709-1309", 2003, "MMITM03", "NAME 3 OBJECTS: 1 SECOND TO SAY EACH.", "MMSE", "REGISTRATION", "3", "", "3", 3, "", "", "", "", "", 1.0, "SCREENING 1", -7, "TREATMENT", "2013-06-09", -10], [880, "CDISCPILOT01", "QS", "01-709-1309", 2004, "MMITM04", "SERIAL 7'S. 1 POINT FOR EACH CORRECT.", "MMSE", "ATTENTION AND CALCULATI", "1", "", "1", 1, "", "", "", "", "", 1.0, "SCREENING 1", -7, "TREATMENT", "2013-06-09", -10], [881, "CDISCPILOT01", "QS", "01-709-1309", 2005, "MMITM05", "ASK FOR THE 3 OBJECTS REPEATED ABOVE.", "MMSE", "RECALL", "1", "", "1", 1, "", "", "", "", "", 1.0, "SCREENING 1", -7, "TREATMENT", "2013-06-09", -10], [882, "CDISCPILOT01", "QS", "01-709-1309", 2006, "MMITM06", "NAME A PENCIL, AND WATCH (2 POINTS)", "MMSE", "LANGUAGE", "8", "", "8", 8, "", "", "", "", "", 1.0, "SCREENING 1", -7, "TREATMENT", "2013-06-09", -10], [883, "CDISCPILOT01", "QS", "01-709-1312", 2001, "MMITM01", "WHAT IS THE (YEAR) (SEASON) (DATE) ?", "MMSE", "ORIENTATION", "2", "", "2", 2, "", "", "", "", "", 1.0, "SCREENING 1", -7, "TREATMENT", "2014-04-13", -7], [884, "CDISCPILOT01", "QS", "01-709-1312", 2002, "MMITM02", "WHERE ARE WE: (STATE) (COUNTRY) (TOWN) ?", "MMSE", "ORIENTATION", "2", "", "2", 2, "", "", "", "", "", 1.0, "SCREENING 1", -7, "TREATMENT", "2014-04-13", -7], [885, "CDISCPILOT01", "QS", "01-709-1312", 2003, "MMITM03", "NAME 3 OBJECTS: 1 SECOND TO SAY EACH.", "MMSE", "REGISTRATION", "3", "", "3", 3, "", "", "", "", "", 1.0, "SCREENING 1", -7, "TREATMENT", "2014-04-13", -7], [886, "CDISCPILOT01", "QS", "01-709-1312", 2004, "MMITM04", "SERIAL 7'S. 1 POINT FOR EACH CORRECT.", "MMSE", "ATTENTION AND CALCULATI", "2", "", "2", 2, "", "", "", "", "", 1.0, "SCREENING 1", -7, "TREATMENT", "2014-04-13", -7], [887, "CDISCPILOT01", "QS", "01-709-1312", 2005, "MMITM05", "ASK FOR THE 3 OBJECTS REPEATED ABOVE.", "MMSE", "RECALL", "0", "", "0", 0, "", "", "", "", "", 1.0, "SCREENING 1", -7, "TREATMENT", "2014-04-13", -7], [888, "CDISCPILOT01", "QS", "01-709-1312", 2006, "MMITM06", "NAME A PENCIL, AND WATCH (2 POINTS)", "MMSE", "LANGUAGE", "5", "", "5", 5, "", "", "", "", "", 1.0, "SCREENING 1", -7, "TREATMENT", "2014-04-13", -7], [889, "CDISCPILOT01", "QS", "01-709-1326", 2001, "MMITM01", "WHAT IS THE (YEAR) (SEASON) (DATE) ?", "MMSE", "ORIENTATION", "0", "", "0", 0, "", "", "", "", "", 1.0, "SCREENING 1", -7, "TREATMENT", "2013-03-21", -15], [890, "CDISCPILOT01", "QS", "01-709-1326", 2002, "MMITM02", "WHERE ARE WE: (STATE) (COUNTRY) (TOWN) ?", "MMSE", "ORIENTATION", "2", "", "2", 2, "", "", "", "", "", 1.0, "SCREENING 1", -7, "TREATMENT", "2013-03-21", -15], [891, "CDISCPILOT01", "QS", "01-709-1326", 2003, "MMITM03", "NAME 3 OBJECTS: 1 SECOND TO SAY EACH.", "MMSE", "REGISTRATION", "3", "", "3", 3, "", "", "", "", "", 1.0, "SCREENING 1", -7, "TREATMENT", "2013-03-21", -15], [892, "CDISCPILOT01", "QS", "01-709-1326", 2004, "MMITM04", "SERIAL 7'S. 1 POINT FOR EACH CORRECT.", "MMSE", "ATTENTION AND CALCULATI", "2", "", "2", 2, "", "", "", "", "", 1.0, "SCREENING 1", -7, "TREATMENT", "2013-03-21", -15], [893, "CDISCPILOT01", "QS", "01-709-1326", 2005, "MMITM05", "ASK FOR THE 3 OBJECTS REPEATED ABOVE.", "MMSE", "RECALL", "0", "", "0", 0, "", "", "", "", "", 1.0, "SCREENING 1", -7, "TREATMENT", "2013-03-21", -15], [894, "CDISCPILOT01", "QS", "01-709-1326", 2006, "MMITM06", "NAME A PENCIL, AND WATCH (2 POINTS)", "MMSE", "LANGUAGE", "4", "", "4", 4, "", "", "", "", "", 1.0, "SCREENING 1", -7, "TREATMENT", "2013-03-21", -15], [895, "CDISCPILOT01", "QS", "01-709-1329", 2001, "MMITM01", "WHAT IS THE (YEAR) (SEASON) (DATE) ?", "MMSE", "ORIENTATION", "0", "", "0", 0, "", "", "", "", "", 1.0, "SCREENING 1", -7, "TREATMENT", "2013-08-01", -14], [896, "CDISCPILOT01", "QS", "01-709-1329", 2002, "MMITM02", "WHERE ARE WE: (STATE) (COUNTRY) (TOWN) ?", "MMSE", "ORIENTATION", "1", "", "1", 1, "", "", "", "", "", 1.0, "SCREENING 1", -7, "TREATMENT", "2013-08-01", -14], [897, "CDISCPILOT01", "QS", "01-709-1329", 2003, "MMITM03", "NAME 3 OBJECTS: 1 SECOND TO SAY EACH.", "MMSE", "REGISTRATION", "3", "", "3", 3, "", "", "", "", "", 1.0, "SCREENING 1", -7, "TREATMENT", "2013-08-01", -14], [898, "CDISCPILOT01", "QS", "01-709-1329", 2004, "MMITM04", "SERIAL 7'S. 1 POINT FOR EACH CORRECT.", "MMSE", "ATTENTION AND CALCULATI", "1", "", "1", 1, "", "", "", "", "", 1.0, "SCREENING 1", -7, "TREATMENT", "2013-08-01", -14], [899, "CDISCPILOT01", "QS", "01-709-1329", 2005, "MMITM05", "ASK FOR THE 3 OBJECTS REPEATED ABOVE.", "MMSE", "RECALL", "0", "", "0", 0, "", "", "", "", "", 1.0, "SCREENING 1", -7, "TREATMENT", "2013-08-01", -14], [900, "CDISCPILOT01", "QS", "01-709-1329", 2006, "MMITM06", "NAME A PENCIL, AND WATCH (2 POINTS)", "MMSE", "LANGUAGE", "5", "", "5", 5, "", "", "", "", "", 1.0, "SCREENING 1", -7, "TREATMENT", "2013-08-01", -14], [901, "CDISCPILOT01", "QS", "01-709-1339", 2001, "MMITM01", "WHAT IS THE (YEAR) (SEASON) (DATE) ?", "MMSE", "ORIENTATION", "4", "", "4", 4, "", "", "", "", "", 1.0, "SCREENING 1", -7, "TREATMENT", "2012-12-15", -8], [902, "CDISCPILOT01", "QS", "01-709-1339", 2002, "MMITM02", "WHERE ARE WE: (STATE) (COUNTRY) (TOWN) ?", "MMSE", "ORIENTATION", "2", "", "2", 2, "", "", "", "", "", 1.0, "SCREENING 1", -7, "TREATMENT", "2012-12-15", -8], [903, "CDISCPILOT01", "QS", "01-709-1339", 2003, "MMITM03", "NAME 3 OBJECTS: 1 SECOND TO SAY EACH.", "MM