{"creationDateTime": "2023-08-04T11:26:56", "datasetJSONVersion": "1.0.0", "fileOID": "UpdatedCDISCPILOT.CDISC SDTM.3.2.SUPPDS", "clinicalData": {"studyOID": "UpdatedCDISCPILOT.CDISC SDTM.3.2", "metaDataVersionOID": "MDV.UpdatedCDISCPILOT.CDISC SDTM.3.2", "itemGroupData": {"SUPPDS": {"records": 3, "name": "SUPPDS", "label": "Supplemental Qualifiers for DS", "items": [{"OID": "ITEMGROUPDATASEQ", "name": "ITEMGROUPDATASEQ", "label": "Record identifier", "type": "integer"}, {"OID": "IT.SUPPDS.STUDYID", "name": "STUDYID", "label": "Study Identifier", "type": "string", "length": 12, "keySequence": 1}, {"OID": "IT.SUPPDS.RDOMAIN", "name": "RDOMAIN", "label": "Related Domain Abbreviation", "type": "string", "length": 2, "keySequence": 2}, {"OID": "IT.SUPPDS.USUBJID", "name": "USUBJID", "label": "Unique Subject Identifier", "type": "string", "length": 11, "keySequence": 3}, {"OID": "IT.SUPPDS.IDVAR", "name": "IDVAR", "label": "Identifying Variable", "type": "string", "length": 8, "keySequence": 4}, {"OID": "IT.SUPPDS.IDVARVAL", "name": "IDVARVAL", "label": "Identifying Variable Value", "type": "string", "length": 200, "keySequence": 5}, {"OID": "IT.SUPPDS.QNAM", "name": "QNAM", "label": "Qualifier Variable Name", "type": "string", "length": 8, "keySequence": 6}, {"OID": "IT.SUPPDS.QLABEL", "name": "QLABEL", "label": "Qualifier Variable Label", "type": "string", "length": 40}, {"OID": "IT.SUPPDS.QVAL", "name": "QVAL", "label": "Data Value", "type": "string", "length": 200}, {"OID": "IT.SUPPDS.QORIG", "name": "QORIG", "label": "Origin", "type": "string", "length": 200}, {"OID": "IT.SUPPDS.QEVAL", "name": "QEVAL", "label": "Evaluator", "type": "string", "length": 200}], "itemData": [[1, "CDISCPILOT01", "DS", "01-703-1175", "DSSEQ", "1", "ENTCRIT", "PROTOCOL ENTRY CRITERIA NOT MET", "16", "CRF", ""], [2, "CDISCPILOT01", "DS", "01-705-1382", "DSSEQ", "1", "ENTCRIT", "PROTOCOL ENTRY CRITERIA NOT MET", "25", "CRF", ""], [3, "CDISCPILOT01", "DS", "01-708-1372", "DSSEQ", "1", "ENTCRIT", "PROTOCOL ENTRY CRITERIA NOT MET", "16", "CRF", ""]]}}}}