{"creationDateTime": "2023-08-11T09:37:50", "datasetJSONVersion": "1.0.0", "fileOID": "www.cdisc.org/StudyMSGv2/1/Define-XML_2.1.0.LB", "originator": "CDISC MSG Team", "clinicalData": {"studyOID": "cdisc.com/CDISCPILOT01", "metaDataVersionOID": "MDV.MSGv2.0.SDTMIG.3.3.SDTM.1.7", "itemGroupData": {"LB": {"records": 3488, "name": "LB", "label": "Laboratory Test Results", "items": [{"OID": "ITEMGROUPDATASEQ", "name": "ITEMGROUPDATASEQ", "label": "Record identifier", "type": "integer"}, {"OID": "IT.LB.STUDYID", "name": "STUDYID", "label": "Study Identifier", "type": "string", "length": 12, "keySequence": 1}, {"OID": "IT.LB.DOMAIN", "name": "DOMAIN", "label": "Domain Abbreviation", "type": "string", "length": 2}, {"OID": "IT.LB.USUBJID", "name": "USUBJID", "label": "Unique Subject Identifier", "type": "string", "length": 8, "keySequence": 2}, {"OID": "IT.LB.LBSEQ", "name": "LBSEQ", "label": "Sequence Number", "type": "integer", "length": 3}, {"OID": "IT.LB.LBTESTCD", "name": "LBTESTCD", "label": "Lab Test or Examination Short Name", "type": "string", "length": 7, "keySequence": 4}, {"OID": "IT.LB.LBTEST", "name": "LBTEST", "label": "Lab Test or Examination Name", "type": "string", "length": 39}, {"OID": "IT.LB.LBCAT", "name": "LBCAT", "label": "Category for Lab Test", "type": "string", "length": 10, "keySequence": 3}, {"OID": "IT.LB.LBORRES", "name": "LBORRES", "label": "Result or Finding in Original Units", "type": "string", "length": 6}, {"OID": "IT.LB.LBORRESU", "name": "LBORRESU", "label": "Original Units", "type": "string", "length": 7}, {"OID": "IT.LB.LBORNRLO", "name": "LBORNRLO", "label": "Reference Range Lower Limit in Orig Unit", "type": "string", "length": 200}, {"OID": "IT.LB.LBORNRHI", "name": "LBORNRHI", "label": "Reference Range Upper Limit in Orig Unit", "type": "string", "length": 200}, {"OID": "IT.LB.LBSTRESC", "name": "LBSTRESC", "label": "Character Result/Finding in Std Format", "type": "string", "length": 8}, {"OID": "IT.LB.LBSTRESN", "name": "LBSTRESN", "label": "Numeric Result/Finding in Standard Units", "type": "float", "length": 8}, {"OID": "IT.LB.LBSTRESU", "name": "LBSTRESU", "label": "Standard Units", "type": "string", "length": 7}, {"OID": "IT.LB.LBSTNRLO", "name": "LBSTNRLO", "label": "Reference Range Lower Limit-Std Units", "type": "float", "length": 5}, {"OID": "IT.LB.LBSTNRHI", "name": "LBSTNRHI", "label": "Reference Range Upper Limit-Std Units", "type": "float", "length": 5}, {"OID": "IT.LB.LBNRIND", "name": "LBNRIND", "label": "Reference Range Indicator", "type": "string", "length": 8}, {"OID": "IT.LB.LBLOBXFL", "name": "LBLOBXFL", "label": "Last Observation Before Exposure Flag", "type": "string", "length": 1}, {"OID": "IT.LB.VISITNUM", "name": "VISITNUM", "label": "Visit Number", "type": "float", "length": 8, "keySequence": 6}, {"OID": "IT.LB.VISIT", "name": "VISIT", "label": "Visit Name", "type": "string", "length": 200}, {"OID": "IT.LB.EPOCH", "name": "EPOCH", "label": "Epoch", "type": "string", "length": 9}, {"OID": "IT.LB.LBDTC", "name": "LBDTC", "label": "Date/Time of Specimen Collection", "type": "string", "keySequence": 5}, {"OID": "IT.LB.LBDY", "name": "LBDY", "label": "Study Day of Specimen Collection", "type": "integer", "length": 8}], "itemData": [[1, "CDISCPILOT01", "LB", "CDISC001", 1, "ALB", "Albumin", "CHEMISTRY", "3.9", "g/dL", "3.5", "4.6", "39", 39.0, "g/L", 35.0, 46.0, "NORMAL", "Y", 1.0, "SCREENING 1", "SCREENING", "2012-11-23T11:20", -7], [2, "CDISCPILOT01", "LB", "CDISC001", 2, "ALP", "Alkaline Phosphatase", "CHEMISTRY", "93", "U/L", "35", "115", "93", 93.0, "U/L", 35.0, 115.0, "NORMAL", "Y", 1.0, "SCREENING 1", "SCREENING", "2012-11-23T11:20", -7], [3, "CDISCPILOT01", "LB", "CDISC001", 3, "ALT", "Alanine Aminotransferase", "CHEMISTRY", "18", "U/L", "6", "35", "18", 18.0, "U/L", 6.0, 35.0, "NORMAL", "Y", 1.0, "SCREENING 1", "SCREENING", "2012-11-23T11:20", -7], [4, "CDISCPILOT01", "LB", "CDISC001", 4, "AST", "Aspartate Aminotransferase", "CHEMISTRY", "26", "U/L", "11", "36", "26", 26.0, "U/L", 11.0, 36.0, "NORMAL", "Y", 1.0, "SCREENING 1", "SCREENING", "2012-11-23T11:20", -7], [5, "CDISCPILOT01", "LB", "CDISC001", 5, "BASO", "Basophils", "HEMATOLOGY", "0.03", "10^9/L", "0", "0.2", "0.03", 0.03, "10^9/L", 0.0, 0.2, "NORMAL", "Y", 1.0, "SCREENING 1", "SCREENING", "2012-11-23T11:20", -7], [6, "CDISCPILOT01", "LB", "CDISC001", 6, "BILI", "Bilirubin", "CHEMISTRY", "0.5", "mg/dL", "0.2", "1.2", "8.55", 8.549999999999999, "umol/L", 3.0, 21.0, "NORMAL", "Y", 1.0, "SCREENING 1", "SCREENING", "2012-11-23T11:20", -7], [7, "CDISCPILOT01", "LB", "CDISC001", 7, "UREAN", "Urea Nitrogen", "CHEMISTRY", "21", "mg/dL", "4", "24", "7.497", 7.497, "mmol/L", 1.4, 8.6, "NORMAL", "Y", 1.0, "SCREENING 1", "SCREENING", "2012-11-23T11:20", -7], [8, "CDISCPILOT01", "LB", "CDISC001", 8, "CA", "Calcium", "CHEMISTRY", "9.1", "mg/dL", "8.4", "10.3", "2.27045", 2.27045, "mmol/L", 2.1, 2.57, "NORMAL", "Y", 1.0, "SCREENING 1", "SCREENING", "2012-11-23T11:20", -7], [9, "CDISCPILOT01", "LB", "CDISC001", 9, "CHOL", "Cholesterol", "CHEMISTRY", "254", "mg/dL", "149", "286", "6.56844", 6.56844, "mmol/L", 3.85, 7.4, "NORMAL", "Y", 1.0, "SCREENING 1", "SCREENING", "2012-11-23T11:20", -7], [10, "CDISCPILOT01", "LB", "CDISC001", 10, "CK", "Creatine Kinase", "CHEMISTRY", "79", "U/L", "22", "198", "79", 79.0, "U/L", 22.0, 198.0, "NORMAL", "Y", 1.0, "SCREENING 1", "SCREENING", "2012-11-23T11:20", -7], [11, "CDISCPILOT01", "LB", "CDISC001", 11, "CL", "Chloride", "CHEMISTRY", "102", "mEq/L", "94", "112", "102", 102.0, "mmol/L", 94.0, 112.0, "NORMAL", "Y", 1.0, "SCREENING 1", "SCREENING", "2012-11-23T11:20", -7], [12, "CDISCPILOT01", "LB", "CDISC001", 12, "COLOR", "Color", "URINALYSIS", "NORMAL", "", "", "", "NORMAL", null, "", null, null, "NORMAL", "Y", 1.0, "SCREENING 1", "SCREENING", "2012-11-23T11:20", -7], [13, "CDISCPILOT01", "LB", "CDISC001", 13, "CREAT", "Creatinine", "CHEMISTRY", "1.3", "mg/dL", "0.8", "1.6", "114.92", 114.92, "umol/L", 71.0, 141.0, "NORMAL", "Y", 1.0, "SCREENING 1", "SCREENING", "2012-11-23T11:20", -7], [14, "CDISCPILOT01", "LB", "CDISC001", 14, "EOS", "Eosinophils", "HEMATOLOGY", "0.08", "10^9/L", "0", "0.57", "0.08", 0.08, "10^9/L", 0.0, 0.57, "NORMAL", "Y", 1.0, "SCREENING 1", "SCREENING", "2012-11-23T11:20", -7], [15, "CDISCPILOT01", "LB", "CDISC001", 15, "GGT", "Gamma Glutamyl Transferase", "CHEMISTRY", "31", "U/L", "10", "50", "31", 31.0, "U/L", 10.0, 50.0, "NORMAL", "Y", 1.0, "SCREENING 1", "SCREENING", "2012-11-23T11:20", -7], [16, "CDISCPILOT01", "LB", "CDISC001", 16, "GLUC", "Glucose", "CHEMISTRY", "74", "mg/dL", "50", "250", "4.10774", 4.10774, "mmol/L", 2.8, 13.9, "NORMAL", "Y", 1.0, "SCREENING 1", "SCREENING", "2012-11-23T11:20", -7], [17, "CDISCPILOT01", "LB", "CDISC001", 17, "HCT", "Hematocrit", "HEMATOLOGY", "46.0", "%", "37", "51", "0.46", 0.46, "", 0.37, 0.51, "NORMAL", "Y", 1.0, "SCREENING 1", "SCREENING", "2012-11-23T11:20", -7], [18, "CDISCPILOT01", "LB", "CDISC001", 18, "HGB", "Hemoglobin", "HEMATOLOGY", "14.9", "g/dL", "12.5", "17", "9.24694", 9.246939999999999, "mmol/L", 7.76, 10.55, "NORMAL", "Y", 1.0, "SCREENING 1", "SCREENING", "2012-11-23T11:20", -7], [19, "CDISCPILOT01", "LB", "CDISC001", 19, "K", "Potassium", "CHEMISTRY", "4.3", "mEq/L", "3.4", "5.4", "4.3", 4.3, "mmol/L", 3.4, 5.3999999999999995, "NORMAL", "Y", 1.0, "SCREENING 1", "SCREENING", "2012-11-23T11:20", -7], [20, "CDISCPILOT01", "LB", "CDISC001", 20, "KETONES", "Ketones", "URINALYSIS", "0", "", "", "", "0", 0.0, "", null, null, "NORMAL", "Y", 1.0, "SCREENING 1", "SCREENING", "2012-11-23T11:20", -7], [21, "CDISCPILOT01", "LB", "CDISC001", 21, "LYM", "Lymphocytes", "HEMATOLOGY", "1.20", "10^9/L", "0.8", "3", "1.2", 1.2, "10^9/L", 0.8, 3.0, "NORMAL", "Y", 1.0, "SCREENING 1", "SCREENING", "2012-11-23T11:20", -7], [22, "CDISCPILOT01", "LB", "CDISC001", 22, "MCH", "Ery. Mean Corpuscular Hemoglobin", "HEMATOLOGY", "30", "pg", "26", "34", "1.8618", 1.8618, "fmol", 1.6, 2.1, "NORMAL", "Y", 1.0, "SCREENING 1", "SCREENING", "2012-11-23T11:20", -7], [23, "CDISCPILOT01", "LB", "CDISC001", 23, "MCHC", "Ery. Mean Corpuscular HGB Concentration", "HEMATOLOGY", "33", "g/dL", "31", "38", "20.4798", 20.4798, "mmol/L", 19.0, 24.0, "NORMAL", "Y", 1.0, "SCREENING 1", "SCREENING", "2012-11-23T11:20", -7], [24, "CDISCPILOT01", "LB", "CDISC001", 24, "MCV", "Ery. Mean Corpuscular Volume", "HEMATOLOGY", "92", "fL", "80", "100", "92", 92.0, "fL", 80.0, 100.0, "NORMAL", "Y", 1.0, "SCREENING 1", "SCREENING", "2012-11-23T11:20", -7], [25, "CDISCPILOT01", "LB", "CDISC001", 25, "MONO", "Monocytes", "HEMATOLOGY", "0.38", "10^9/L", "0.12", "0.92", "0.38", 0.38, "10^9/L", 0.12, 0.92, "NORMAL", "Y", 1.0, "SCREENING 1", "SCREENING", "2012-11-23T11:20", -7], [26, "CDISCPILOT01", "LB", "CDISC001", 26, "SODIUM", "Sodium", "CHEMISTRY", "139", "mEq/L", "135", "145", "139", 139.0, "mmol/L", 135.0, 145.0, "NORMAL", "Y", 1.0, "SCREENING 1", "SCREENING", "2012-11-23T11:20", -7], [27, "CDISCPILOT01", "LB", "CDISC001", 27, "PH", "pH", "URINALYSIS", "5", "", "5", "8", "5", 5.0, "", 5.0, 8.0, "NORMAL", "Y", 1.0, "SCREENING 1", "SCREENING", "2012-11-23T11:20", -7], [28, "CDISCPILOT01", "LB", "CDISC001", 28, "PHOS", "Phosphate", "CHEMISTRY", "3.4", "mg/dL", "2.2", "5.1", "1.09786", 1.09786, "mmol/L", 0.71, 1.65, "NORMAL", "Y", 1.0, "SCREENING 1", "SCREENING", "2012-11-23T11:20", -7], [29, "CDISCPILOT01", "LB", "CDISC001", 29, "PLAT", "Platelets", "HEMATOLOGY", "150", "10^9/L", "130", "394", "150", 150.0, "10^9/L", 130.0, 394.0, "NORMAL", "Y", 1.0, "SCREENING 1", "SCREENING", "2012-11-23T11:20", -7], [30, "CDISCPILOT01", "LB", "CDISC001", 30, "PROT", "Protein", "CHEMISTRY", "6.7", "g/dL", "6", "8", "67", 67.0, "g/L", 60.0, 80.0, "NORMAL", "Y", 1.0, "SCREENING 1", "SCREENING", "2012-11-23T11:20", -7], [31, "CDISCPILOT01", "LB", "CDISC001", 31, "RBC", "Erythrocytes", "HEMATOLOGY", "5.00", "10^12/L", "4", "5.8", "5", 5.0, "10^12/L", 4.0, 5.8, "NORMAL", "Y", 1.0, "SCREENING 1", "SCREENING", "2012-11-23T11:20", -7], [32, "CDISCPILOT01", "LB", "CDISC001", 32, "SPGRAV", "Specific Gravity", "URINALYSIS", "1.017", "", "1.006", "1.03", "1.017", 1.017, "", 1.006, 1.03, "NORMAL", "Y", 1.0, "SCREENING 1", "SCREENING", "2012-11-23T11:20", -7], [33, "CDISCPILOT01", "LB", "CDISC001", 33, "TSH", "Thyrotropin", "OTHER", "2.63", "mIU/L", ".32", "5", "2.63", 2.63, "mU/L", 0.32, 5.0, "NORMAL", "Y", 1.0, "SCREENING 1", "SCREENING", "2012-11-23T11:20", -7], [34, "CDISCPILOT01", "LB", "CDISC001", 34, "URATE", "Urate", "CHEMISTRY", "4.9", "mg/dL", "2.5", "7.5", "291.452", 291.452, "umol/L", 149.0, 446.0, "NORMAL", "Y", 1.0, "SCREENING 1", "SCREENING", "2012-11-23T11:20", -7], [35, "CDISCPILOT01", "LB", "CDISC001", 35, "UROBIL", "Urobilinogen", "URINALYSIS", "0", "", "", "", "0", 0.0, "", null, null, "NORMAL", "Y", 1.0, "SCREENING 1", "SCREENING", "2012-11-23T11:20", -7], [36, "CDISCPILOT01", "LB", "CDISC001", 36, "VITB12", "Vitamin B12", "OTHER", "641", "ng/L", "200", "900", "472.9298", 472.9298, "pmol/L", 148.0, 664.0, "NORMAL", "Y", 1.0, "SCREENING 1", "SCREENING", "2012-11-23T11:20", -7], [37, "CDISCPILOT01", "LB", "CDISC001", 37, "WBC", "Leukocytes", "HEMATOLOGY", "4.99", "10^9/L", "3.8", "10.7", "4.99", 4.989999999999999, "10^9/L", 3.8, 10.7, "NORMAL", "Y", 1.0, "SCREENING 1", "SCREENING", "2012-11-23T11:20", -7], [38, "CDISCPILOT01", "LB", "CDISC001", 38, "ALB", "Albumin", "CHEMISTRY", "3.6", "g/dL", "3.5", "4.6", "36", 36.0, "g/L", 35.0, 46.0, "NORMAL", "", 4.0, "WEEK 2", "TREATMENT", "2012-12-13T14:05", 14], [39, "CDISCPILOT01", "LB", "CDISC001", 39, "ALP", "Alkaline Phosphatase", "CHEMISTRY", "88", "U/L", "35", "115", "88", 88.0, "U/L", 35.0, 115.0, "NORMAL", "", 4.0, "WEEK 2", "TREATMENT", "2012-12-13T14:05", 14], [40, "CDISCPILOT01", "LB", "CDISC001", 40, "ALT", "Alanine Aminotransferase", "CHEMISTRY", "15", "U/L", "6", "35", "15", 15.0, "U/L", 6.0, 35.0, "NORMAL", "", 4.0, "WEEK 2", "TREATMENT", "2012-12-13T14:05", 14], [41, "CDISCPILOT01", "LB", "CDISC001", 41, "AST", "Aspartate Aminotransferase", "CHEMISTRY", "25", "U/L", "11", "36", "25", 25.0, "U/L", 11.0, 36.0, "NORMAL", "", 4.0, "WEEK 2", "TREATMENT", "2012-12-13T14:05", 14], [42, "CDISCPILOT01", "LB", "CDISC001", 42, "BASO", "Basophils", "HEMATOLOGY", "0.04", "10^9/L", "0", "0.2", "0.04", 0.039999999999999994, "10^9/L", 0.0, 0.2, "NORMAL", "", 4.0, "WEEK 2", "TREATMENT", "2012-12-13T14:05", 14], [43, "CDISCPILOT01", "LB", "CDISC001", 43, "BILI", "Bilirubin", "CHEMISTRY", "0.4", "mg/dL", "0.2", "1.2", "6.84", 6.84, "umol/L", 3.0, 21.0, "NORMAL", "", 4.0, "WEEK 2", "TREATMENT", "2012-12-13T14:05", 14], [44, "CDISCPILOT01", "LB", "CDISC001", 44, "UREAN", "Urea Nitrogen", "CHEMISTRY", "22", "mg/dL", "4", "24", "7.854", 7.854, "mmol/L", 1.4, 8.6, "NORMAL", "", 4.0, "WEEK 2", "TREATMENT", "2012-12-13T14:05", 14], [45, "CDISCPILOT01", "LB", "CDISC001", 45, "CA", "Calcium", "CHEMISTRY", "8.9", "mg/dL", "8.4", "10.3", "2.22055", 2.22055, "mmol/L", 2.1, 2.57, "NORMAL", "", 4.0, "WEEK 2", "TREATMENT", "2012-12-13T14:05", 14], [46, "CDISCPILOT01", "LB", "CDISC001", 46, "CHOL", "Cholesterol", "CHEMISTRY", "226", "mg/dL", "149", "286", "5.84436", 5.84436, "mmol/L", 3.85, 7.4, "NORMAL", "", 4.0, "WEEK 2", "TREATMENT", "2012-12-13T14:05", 14], [47, "CDISCPILOT01", "LB", "CDISC001", 47, "CK", "Creatine Kinase", "CHEMISTRY", "73", "U/L", "22", "198", "73", 73.0, "U/L", 22.0, 198.0, "NORMAL", "", 4.0, "WEEK 2", "TREATMENT", "2012-12-13T14:05", 14], [48, "CDISCPILOT01", "LB", "CDISC001", 48, "CL", "Chloride", "CHEMISTRY", "107", "mEq/L", "94", "112", "107", 107.0, "mmol/L", 94.0, 112.0, "NORMAL", "", 4.0, "WEEK 2", "TREATMENT", "2012-12-13T14:05", 14], [49, "CDISCPILOT01", "LB", "CDISC001", 49, "COLOR", "Color", "URINALYSIS", "NORMAL", "", "", "", "NORMAL", null, "", null, null, "NORMAL", "", 4.0, "WEEK 2", "TREATMENT", "2012-12-13T14:05", 14], [50, "CDISCPILOT01", "LB", "CDISC001", 50, "CREAT", "Creatinine", "CHEMISTRY", "1.3", "mg/dL", "0.8", "1.6", "114.92", 114.92, "umol/L", 71.0, 141.0, "NORMAL", "", 4.0, "WEEK 2", "TREATMENT", "2012-12-13T14:05", 14], [51, "CDISCPILOT01", "LB", "CDISC001", 51, "EOS", "Eosinophils", "HEMATOLOGY", "0.08", "10^9/L", "0", "0.57", "0.08", 0.08, "10^9/L", 0.0, 0.57, "NORMAL", "", 4.0, "WEEK 2", "TREATMENT", "2012-12-13T14:05", 14], [52, "CDISCPILOT01", "LB", "CDISC001", 52, "GGT", "Gamma Glutamyl Transferase", "CHEMISTRY", "31", "U/L", "10", "50", "31", 31.0, "U/L", 10.0, 50.0, "NORMAL", "", 4.0, "WEEK 2", "TREATMENT", "2012-12-13T14:05", 14], [53, "CDISCPILOT01", "LB", "CDISC001", 53, "GLUC", "Glucose", "CHEMISTRY", "85", "mg/dL", "50", "250", "4.71835", 4.71835, "mmol/L", 2.8, 13.9, "NORMAL", "", 4.0, "WEEK 2", "TREATMENT", "2012-12-13T14:05", 14], [54, "CDISCPILOT01", "LB", "CDISC001", 54, "HCT", "Hematocrit", "HEMATOLOGY", "45.0", "%", "37", "51", "0.45", 0.45, "", 0.37, 0.51, "NORMAL", "", 4.0, "WEEK 2", "TREATMENT", "2012-12-13T14:05", 14], [55, "CDISCPILOT01", "LB", "CDISC001", 55, "HGB", "Hemoglobin", "HEMATOLOGY", "14.6", "g/dL", "12.5", "17", "9.06076", 9.060759999999998, "mmol/L", 7.76, 10.55, "NORMAL", "", 4.0, "WEEK 2", "TREATMENT", "2012-12-13T14:05", 14], [56, "CDISCPILOT01", "LB", "CDISC001", 56, "K", "Potassium", "CHEMISTRY", "5.1", "mEq/L", "3.4", "5.4", "5.1", 5.1, "mmol/L", 3.4, 5.3999999999999995, "NORMAL", "", 4.0, "WEEK 2", "TREATMENT", "2012-12-13T14:05", 14], [57, "CDISCPILOT01", "LB", "CDISC001", 57, "KETONES", "Ketones", "URINALYSIS", "0", "", "", "", "0", 0.0, "", null, null, "NORMAL", "", 4.0, "WEEK 2", "TREATMENT", "2012-12-13T14:05", 14], [58, "CDISCPILOT01", "LB", "CDISC001", 58, "LYM", "Lymphocytes", "HEMATOLOGY", "1.48", "10^9/L", "0.8", "3", "1.48", 1.48, "10^9/L", 0.8, 3.0, "NORMAL", "", 4.0, "WEEK 2", "TREATMENT", "2012-12-13T14:05", 14], [59, "CDISCPILOT01", "LB", "CDISC001", 59, "MCH", "Ery. Mean Corpuscular Hemoglobin", "HEMATOLOGY", "31", "pg", "26", "34", "1.92386", 1.92386, "fmol", 1.6, 2.1, "NORMAL", "", 4.0, "WEEK 2", "TREATMENT", "2012-12-13T14:05", 14], [60, "CDISCPILOT01", "LB", "CDISC001", 60, "MCHC", "Ery. Mean Corpuscular HGB Concentration", "HEMATOLOGY", "33", "g/dL", "31", "38", "20.4798", 20.4798, "mmol/L", 19.0, 24.0, "NORMAL", "", 4.0, "WEEK 2", "TREATMENT", "2012-12-13T14:05", 14], [61, "CDISCPILOT01", "LB", "CDISC001", 61, "MCV", "Ery. Mean Corpuscular Volume", "HEMATOLOGY", "96", "fL", "80", "100", "96", 96.0, "fL", 80.0, 100.0, "NORMAL", "", 4.0, "WEEK 2", "TREATMENT", "2012-12-13T14:05", 14], [62, "CDISCPILOT01", "LB", "CDISC001", 62, "MONO", "Monocytes", "HEMATOLOGY", "0.36", "10^9/L", "0.12", "0.92", "0.36", 0.36, "10^9/L", 0.12, 0.92, "NORMAL", "", 4.0, "WEEK 2", "TREATMENT", "2012-12-13T14:05", 14], [63, "CDISCPILOT01", "LB", "CDISC001", 63, "SODIUM", "Sodium", "CHEMISTRY", "142", "mEq/L", "135", "145", "142", 142.0, "mmol/L", 135.0, 145.0, "NORMAL", "", 4.0, "WEEK 2", "TREATMENT", "2012-12-13T14:05", 14], [64, "CDISCPILOT01", "LB", "CDISC001", 64, "PH", "pH", "URINALYSIS", "5", "", "5", "8", "5", 5.0, "", 5.0, 8.0, "NORMAL", "", 4.0, "WEEK 2", "TREATMENT", "2012-12-13T14:05", 14], [65, "CDISCPILOT01", "LB", "CDISC001", 65, "PHOS", "Phosphate", "CHEMISTRY", "3.7", "mg/dL", "2.2", "5.1", "1.19473", 1.19473, "mmol/L", 0.71, 1.65, "NORMAL", "", 4.0, "WEEK 2", "TREATMENT", "2012-12-13T14:05", 14], [66, "CDISCPILOT01", "LB", "CDISC001", 66, "PLAT", "Platelets", "HEMATOLOGY", "190", "10^9/L", "130", "394", "190", 190.0, "10^9/L", 130.0, 394.0, "NORMAL", "", 4.0, "WEEK 2", "TREATMENT", "2012-12-13T14:05", 14], [67, "CDISCPILOT01", "LB", "CDISC001", 67, "PROT", "Protein", "CHEMISTRY", "6.3", "g/dL", "6", "8", "63", 63.0, "g/L", 60.0, 80.0, "NORMAL", "", 4.0, "WEEK 2", "TREATMENT", "2012-12-13T14:05", 14], [68, "CDISCPILOT01", "LB", "CDISC001", 68, "RBC", "Erythrocytes", "HEMATOLOGY", "4.70", "10^12/L", "4", "5.8", "4.7", 4.699999999999999, "10^12/L", 4.0, 5.8, "NORMAL", "", 4.0, "WEEK 2", "TREATMENT", "2012-12-13T14:05", 14], [69, "CDISCPILOT01", "LB", "CDISC001", 69, "SPGRAV", "Specific Gravity", "URINALYSIS", "1.023", "", "1.006", "1.03", "1.023", 1.023, "", 1.006, 1.03, "NORMAL", "", 4.0, "WEEK 2", "TREATMENT", "2012-12-13T14:05", 14], [70, "CDISCPILOT01", "LB", "CDISC001", 70, "URATE", "Urate", "CHEMISTRY", "4.4", "mg/dL", "2.5", "7.5", "261.712", 261.712, "umol/L", 149.0, 446.0, "NORMAL", "", 4.0, "WEEK 2", "TREATMENT", "2012-12-13T14:05", 14], [71, "CDISCPILOT01", "LB", "CDISC001", 71, "UROBIL", "Urobilinogen", "URINALYSIS", "0", "", "", "", "0", 0.0, "", null, null, "NORMAL", "", 4.0, "WEEK 2", "TREATMENT", "2012-12-13T14:05", 14], [72, "CDISCPILOT01", "LB", "CDISC001", 72, "WBC", "Leukocytes", "HEMATOLOGY", "4.44", "10^9/L", "3.8", "10.7", "4.44", 4.4399999999999995, "10^9/L", 3.8, 10.7, "NORMAL", "", 4.0, "WEEK 2", "TREATMENT", "2012-12-13T14:05", 14], [73, "CDISCPILOT01", "LB", "CDISC001", 73, "ALB", "Albumin", "CHEMISTRY", "3.5", "g/dL", "3.5", "4.6", "35", 35.0, "g/L", 35.0, 46.0, "NORMAL", "", 5.0, "WEEK 4", "TREATMENT", "2012-12-26T08:44", 27], [74, "CDISCPILOT01", "LB", "CDISC001", 74, "ALP", "Alkaline Phosphatase", "CHEMISTRY", "91", "U/L", "35", "115", "91", 91.0, "U/L", 35.0, 115.0, "NORMAL", "", 5.0, "WEEK 4", "TREATMENT", "2012-12-26T08:44", 27], [75, "CDISCPILOT01", "LB", "CDISC001", 75, "ALT", "Alanine Aminotransferase", "CHEMISTRY", "13", "U/L", "6", "35", "13", 13.0, "U/L", 6.0, 35.0, "NORMAL", "", 5.0, "WEEK 4", "TREATMENT", "2012-12-26T08:44", 27], [76, "CDISCPILOT01", "LB", "CDISC001", 76, "AST", "Aspartate Aminotransferase", "CHEMISTRY", "20", "U/L", "11", "36", "20", 20.0, "U/L", 11.0, 36.0, "NORMAL", "", 5.0, "WEEK 4", "TREATMENT", "2012-12-26T08:44", 27], [77, "CDISCPILOT01", "LB", "CDISC001", 77, "BASO", "Basophils", "HEMATOLOGY", "0.05", "10^9/L", "0", "0.2", "0.05", 0.05, "10^9/L", 0.0, 0.2, "NORMAL", "", 5.0, "WEEK 4", "TREATMENT", "2012-12-26T08:44", 27], [78, "CDISCPILOT01", "LB", "CDISC001", 78, "BILI", "Bilirubin", "CHEMISTRY", "0.4", "mg/dL", "0.2", "1.2", "6.84", 6.84, "umol/L", 3.0, 21.0, "NORMAL", "", 5.0, "WEEK 4", "TREATMENT", "2012-12-26T08:44", 27], [79, "CDISCPILOT01", "LB", "CDISC001", 79, "UREAN", "Urea Nitrogen", "CHEMISTRY", "20", "mg/dL", "4", "24", "7.14", 7.14, "mmol/L", 1.4, 8.6, "NORMAL", "", 5.0, "WEEK 4", "TREATMENT", "2012-12-26T08:44", 27], [80, "CDISCPILOT01", "LB", "CDISC001", 80, "CA", "Calcium", "CHEMISTRY", "9.2", "mg/dL", "8.4", "10.3", "2.2954", 2.2954, "mmol/L", 2.1, 2.57, "NORMAL", "", 5.0, "WEEK 4", "TREATMENT", "2012-12-26T08:44", 27], [81, "CDISCPILOT01", "LB", "CDISC001", 81, "CHOL", "Cholesterol", "CHEMISTRY", "219", "mg/dL", "149", "286", "5.66334", 5.66334, "mmol/L", 3.85, 7.4, "NORMAL", "", 5.0, "WEEK 4", "TREATMENT", "2012-12-26T08:44", 27], [82, "CDISCPILOT01", "LB", "CDISC001", 82, "CK", "Creatine Kinase", "CHEMISTRY", "75", "U/L", "22", "198", "75", 75.0, "U/L", 22.0, 198.0, "NORMAL", "", 5.0, "WEEK 4", "TREATMENT", "2012-12-26T08:44", 27], [83, "CDISCPILOT01", "LB", "CDISC001", 83, "CL", "Chloride", "CHEMISTRY", "106", "mEq/L", "94", "112", "106", 106.0, "mmol/L", 94.0, 112.0, "NORMAL", "", 5.0, "WEEK 4", "TREATMENT", "2012-12-26T08:44", 27], [84, "CDISCPILOT01", "LB", "CDISC001", 84, "CREAT", "Creatinine", "CHEMISTRY", "1.3", "mg/dL", "0.8", "1.6", "114.92", 114.92, "umol/L", 71.0, 141.0, "NORMAL", "", 5.0, "WEEK 4", "TREATMENT", "2012-12-26T08:44", 27], [85, "CDISCPILOT01", "LB", "CDISC001", 85, "EOS", "Eosinophils", "HEMATOLOGY", "0.07", "10^9/L", "0", "0.57", "0.07", 0.07, "10^9/L", 0.0, 0.57, "NORMAL", "", 5.0, "WEEK 4", "TREATMENT", "2012-12-26T08:44", 27], [86, "CDISCPILOT01", "LB", "CDISC001", 86, "GGT", "Gamma Glutamyl Transferase", "CHEMISTRY", "30", "U/L", "10", "50", "30", 30.0, "U/L", 10.0, 50.0, "NORMAL", "", 5.0, "WEEK 4", "TREATMENT", "2012-12-26T08:44", 27], [87, "CDISCPILOT01", "LB", "CDISC001", 87, "GLUC", "Glucose", "CHEMISTRY", "<40", "mg/dL", "50", "250", "<2.2204", null, "mmol/L", 2.8, 13.9, "LOW", "", 5.0, "WEEK 4", "TREATMENT", "2012-12-26T08:44", 27], [88, "CDISCPILOT01", "LB", "CDISC001", 88, "HCT", "Hematocrit", "HEMATOLOGY", "45.0", "%", "37", "51", "0.45", 0.45, "", 0.37, 0.51, "NORMAL", "", 5.0, "WEEK 4", "TREATMENT", "2012-12-26T08:44", 27], [89, "CDISCPILOT01", "LB", "CDISC001", 89, "HGB", "Hemoglobin", "HEMATOLOGY", "14.6", "g/dL", "12.5", "17", "9.06076", 9.060759999999998, "mmol/L", 7.76, 10.55, "NORMAL", "", 5.0, "WEEK 4", "TREATMENT", "2012-12-26T08:44", 27], [90, "CDISCPILOT01", "LB", "CDISC001", 90, "K", "Potassium", "CHEMISTRY", "4.7", "mEq/L", "3.4", "5.4", "4.7", 4.699999999999999, "mmol/L", 3.4, 5.3999999999999995, "NORMAL", "", 5.0, "WEEK 4", "TREATMENT", "2012-12-26T08:44", 27], [91, "CDISCPILOT01", "LB", "CDISC001", 91, "LYM", "Lymphocytes", "HEMATOLOGY", "1.04", "10^9/L", "0.8", "3", "1.04", 1.04, "10^9/L", 0.8, 3.0, "NORMAL", "", 5.0, "WEEK 4", "TREATMENT", "2012-12-26T08:44", 27], [92, "CDISCPILOT01", "LB", "CDISC001", 92, "MCH", "Ery. Mean Corpuscular Hemoglobin", "HEMATOLOGY", "31", "pg", "26", "34", "1.92386", 1.92386, "fmol", 1.6, 2.1, "NORMAL", "", 5.0, "WEEK 4", "TREATMENT", "2012-12-26T08:44", 27], [93, "CDISCPILOT01", "LB", "CDISC001", 93, "MCHC", "Ery. Mean Corpuscular HGB Concentration", "HEMATOLOGY", "33", "g/dL", "31", "38", "20.4798", 20.4798, "mmol/L", 19.0, 24.0, "NORMAL", "", 5.0, "WEEK 4", "TREATMENT", "2012-12-26T08:44", 27], [94, "CDISCPILOT01", "LB", "CDISC001", 94, "MCV", "Ery. Mean Corpuscular Volume", "HEMATOLOGY", "96", "fL", "80", "100", "96", 96.0, "fL", 80.0, 100.0, "NORMAL", "", 5.0, "WEEK 4", "TREATMENT", "2012-12-26T08:44", 27], [95, "CDISCPILOT01", "LB", "CDISC001", 95, "MONO", "Monocytes", "HEMATOLOGY", "0.56", "10^9/L", "0.12", "0.92", "0.56", 0.5599999999999999, "10^9/L", 0.12, 0.92, "NORMAL", "", 5.0, "WEEK 4", "TREATMENT", "2012-12-26T08:44", 27], [96, "CDISCPILOT01", "LB", "CDISC001", 96, "SODIUM", "Sodium", "CHEMISTRY", "140", "mEq/L", "135", "145", "140", 140.0, "mmol/L", 135.0, 145.0, "NORMAL", "", 5.0, "WEEK 4", "TREATMENT", "2012-12-26T08:44", 27], [97, "CDISCPILOT01", "LB", "CDISC001", 97, "PHOS", "Phosphate", "CHEMISTRY", "3.1", "mg/dL", "2.2", "5.1", "1.00099", 1.00099, "mmol/L", 0.71, 1.65, "NORMAL", "", 5.0, "WEEK 4", "TREATMENT", "2012-12-26T08:44", 27], [98, "CDISCPILOT01", "LB", "CDISC001", 98, "PLAT", "Platelets", "HEMATOLOGY", "187", "10^9/L", "130", "394", "187", 187.0, "10^9/L", 130.0, 394.0, "NORMAL", "", 5.0, "WEEK 4", "TREATMENT", "2012-12-26T08:44", 27], [99, "CDISCPILOT01", "LB", "CDISC001", 99, "PROT", "Protein", "CHEMISTRY", "6.3", "g/dL", "6", "8", "63", 63.0, "g/L", 60.0, 80.0, "NORMAL", "", 5.0, "WEEK 4", "TREATMENT", "2012-12-26T08:44", 27], [100, "CDISCPILOT01", "LB", "CDISC001", 100, "RBC", "Erythrocytes", "HEMATOLOGY", "4.70", "10^12/L", "4", "5.8", "4.7", 4.699999999999999, "10^12/L", 4.0, 5.8, "NORMAL", "", 5.0, "WEEK 4", "TREATMENT", "2012-12-26T08:44", 27], [101, "CDISCPILOT01", "LB", "CDISC001", 101, "URATE", "Urate", "CHEMISTRY", "4.7", "mg/dL", "2.5", "7.5", "279.556", 279.556, "umol/L", 149.0, 446.0, "NORMAL", "", 5.0, "WEEK 4", "TREATMENT", "2012-12-26T08:44", 27], [102, "CDISCPILOT01", "LB", "CDISC001", 102, "WBC", "Leukocytes", "HEMATOLOGY", "5.40", "10^9/L", "3.8", "10.7", "5.4", 5.3999999999999995, "10^9/L", 3.8, 10.7, "NORMAL", "", 5.0, "WEEK 4", "TREATMENT", "2012-12-26T08:44", 27], [103, "CDISCPILOT01", "LB", "CDISC001", 103, "ALB", "Albumin", "CHEMISTRY", "3.7", "g/dL", "3.5", "4.6", "37", 37.0, "g/L", 35.0, 46.0, "NORMAL", "", 5.01, "WEEK 4: UNSCHEDULED 01", "TREATMENT", "2012-12-28T09:27", 29], [104, "CDISCPILOT01", "LB", "CDISC001", 104, "ALP", "Alkaline Phosphatase", "CHEMISTRY", "101", "U/L", "35", "115", "101", 101.0, "U/L", 35.0, 115.0, "NORMAL", "", 5.01, "WEEK 4: UNSCHEDULED 01", "TREATMENT", "2012-12-28T09:27", 29], [105, "CDISCPILOT01", "LB", "CDISC001", 105, "ALT", "Alanine Aminotransferase", "CHEMISTRY", "16", "U/L", "6", "35", "16", 16.0, "U/L", 6.0, 35.0, "NORMAL", "", 5.01, "WEEK 4: UNSCHEDULED 01", "TREATMENT", "2012-12-28T09:27", 29], [106, "CDISCPILOT01", "LB", "CDISC001", 106, "AST", "Aspartate Aminotransferase", "CHEMISTRY", "23", "U/L", "11", "36", "23", 23.0, "U/L", 11.0, 36.0, "NORMAL", "", 5.01, "WEEK 4: UNSCHEDULED 01", "TREATMENT", "2012-12-28T09:27", 29], [107, "CDISCPILOT01", "LB", "CDISC001", 107, "BILI", "Bilirubin", "CHEMISTRY", "0.3", "mg/dL", "0.2", "1.2", "5.13", 5.13, "umol/L", 3.0, 21.0, "NORMAL", "", 5.01, "WEEK 4: UNSCHEDULED 01", "TREATMENT", "2012-12-28T09:27", 29], [108, "CDISCPILOT01", "LB", "CDISC001", 108, "UREAN", "Urea Nitrogen", "CHEMISTRY", "21", "mg/dL", "4", "24", "7.497", 7.497, "mmol/L", 1.4, 8.6, "NORMAL", "", 5.01, "WEEK 4: UNSCHEDULED 01", "TREATMENT", "2012-12-28T09:27", 29], [109, "CDISCPILOT01", "LB", "CDISC001", 109, "CA", "Calcium", "CHEMISTRY", "9.6", "mg/dL", "8.4", "10.3", "2.3952", 2.3952, "mmol/L", 2.1, 2.57, "NORMAL", "", 5.01, "WEEK 4: UNSCHEDULED 01", "TREATMENT", "2012-12-28T09:27", 29], [110, "CDISCPILOT01", "LB", "CDISC001", 110, "CHOL", "Cholesterol", "CHEMISTRY", "235", "mg/dL", "149", "286", "6.0771", 6.0771, "mmol/L", 3.85, 7.4, "NORMAL", "", 5.01, "WEEK 4: UNSCHEDULED 01", "TREATMENT", "2012-12-28T09:27", 29], [111, "CDISCPILOT01", "LB", "CDISC001", 111, "CK", "Creatine Kinase", "CHEMISTRY", "58", "U/L", "22", "198", "58", 58.0, "U/L", 22.0, 198.0, "NORMAL", "", 5.01, "WEEK 4: UNSCHEDULED 01", "TREATMENT", "2012-12-28T09:27", 29], [112, "CDISCPILOT01", "LB", "CDISC001", 112, "CREAT", "Creatinine", "CHEMISTRY", "1.3", "mg/dL", "0.8", "1.6", "114.92", 114.92, "umol/L", 71.0, 141.0, "NORMAL", "", 5.01, "WEEK 4: UNSCHEDULED 01", "TREATMENT", "2012-12-28T09:27", 29], [113, "CDISCPILOT01", "LB", "CDISC001", 113, "GGT", "Gamma Glutamyl Transferase", "CHEMISTRY", "34", "U/L", "10", "50", "34", 34.0, "U/L", 10.0, 50.0, "NORMAL", "", 5.01, "WEEK 4: UNSCHEDULED 01", "TREATMENT", "2012-12-28T09:27", 29], [114, "CDISCPILOT01", "LB", "CDISC001", 114, "GLUC", "Glucose", "CHEMISTRY", "48", "mg/dL", "50", "250", "2.66448", 2.6644799999999997, "mmol/L", 2.8, 13.9, "LOW", "", 5.01, "WEEK 4: UNSCHEDULED 01", "TREATMENT", "2012-12-28T09:27", 29], [115, "CDISCPILOT01", "LB", "CDISC001", 115, "PHOS", "Phosphate", "CHEMISTRY", "2.9", "mg/dL", "2.2", "5.1", "0.93641", 0.93641, "mmol/L", 0.71, 1.65, "NORMAL", "", 5.01, "WEEK 4: UNSCHEDULED 01", "TREATMENT", "2012-12-28T09:27", 29], [116, "CDISCPILOT01", "LB", "CDISC001", 116, "PROT", "Protein", "CHEMISTRY", "6.9", "g/dL", "6", "8", "69", 69.0, "g/L", 60.0, 80.0, "NORMAL", "", 5.01, "WEEK 4: UNSCHEDULED 01", "TREATMENT", "2012-12-28T09:27", 29], [117, "CDISCPILOT01", "LB", "CDISC001", 117, "URATE", "Urate", "CHEMISTRY", "4.4", "mg/dL", "2.5", "7.5", "261.712", 261.712, "umol/L", 149.0, 446.0, "NORMAL", "", 5.01, "WEEK 4: UNSCHEDULED 01", "TREATMENT", "2012-12-28T09:27", 29], [118, "CDISCPILOT01", "LB", "CDISC001", 118, "ALB", "Albumin", "CHEMISTRY", "3.7", "g/dL", "3.5", "4.6", "37", 37.0, "g/L", 35.0, 46.0, "NORMAL", "", 7.0, "WEEK 6", "TREATMENT", "2013-01-10T15:20", 42], [119, "CDISCPILOT01", "LB", "CDISC001", 119, "ALP", "Alkaline Phosphatase", "CHEMISTRY", "98", "U/L", "35", "115", "98", 98.0, "U/L", 35.0, 115.0, "NORMAL", "", 7.0, "WEEK 6", "TREATMENT", "2013-01-10T15:20", 42], [120, "CDISCPILOT01", "LB", "CDISC001", 120, "ALT", "Alanine Aminotransferase", "CHEMISTRY", "18", "U/L", "6", "35", "18", 18.0, "U/L", 6.0, 35.0, "NORMAL", "", 7.0, "WEEK 6", "TREATMENT", "2013-01-10T15:20", 42], [121, "CDISCPILOT01", "LB", "CDISC001", 121, "AST", "Aspartate Aminotransferase", "CHEMISTRY", "25", "U/L", "11", "36", "25", 25.0, "U/L", 11.0, 36.0, "NORMAL", "", 7.0, "WEEK 6", "TREATMENT", "2013-01-10T15:20", 42], [122, "CDISCPILOT01", "LB", "CDISC001", 122, "BASO", "Basophils", "HEMATOLOGY", "0.03", "10^9/L", "0", "0.2", "0.03", 0.03, "10^9/L", 0.0, 0.2, "NORMAL", "", 7.0, "WEEK 6", "TREATMENT", "2013-01-10T15:20", 42], [123, "CDISCPILOT01", "LB", "CDISC001", 123, "BILI", "Bilirubin", "CHEMISTRY", "0.4", "mg/dL", "0.2", "1.2", "6.84", 6.84, "umol/L", 3.0, 21.0, "NORMAL", "", 7.0, "WEEK 6", "TREATMENT", "2013-01-10T15:20", 42], [124, "CDISCPILOT01", "LB", "CDISC001", 124, "UREAN", "Urea Nitrogen", "CHEMISTRY", "25", "mg/dL", "4", "24", "8.925", 8.924999999999999, "mmol/L", 1.4, 8.6, "HIGH", "", 7.0, "WEEK 6", "TREATMENT", "2013-01-10T15:20", 42], [125, "CDISCPILOT01", "LB", "CDISC001", 125, "CA", "Calcium", "CHEMISTRY", "9.2", "mg/dL", "8.4", "10.3", "2.2954", 2.2954, "mmol/L", 2.1, 2.57, "NORMAL", "", 7.0, "WEEK 6", "TREATMENT", "2013-01-10T15:20", 42], [126, "CDISCPILOT01", "LB", "CDISC001", 126, "CHOL", "Cholesterol", "CHEMISTRY", "242", "mg/dL", "149", "286", "6.25812", 6.25812, "mmol/L", 3.85, 7.4, "NORMAL", "", 7.0, "WEEK 6", "TREATMENT", "2013-01-10T15:20", 42], [127, "CDISCPILOT01", "LB", "CDISC001", 127, "CK", "Creatine Kinase", "CHEMISTRY", "78", "U/L", "22", "198", "78", 78.0, "U/L", 22.0, 198.0, "NORMAL", "", 7.0, "WEEK 6", "TREATMENT", "2013-01-10T15:20", 42], [128, "CDISCPILOT01", "LB", "CDISC001", 128, "CL", "Chloride", "CHEMISTRY", "108", "mEq/L", "94", "112", "108", 108.0, "mmol/L", 94.0, 112.0, "NORMAL", "", 7.0, "WEEK 6", "TREATMENT", "2013-01-10T15:20", 42], [129, "CDISCPILOT01", "LB", "CDISC001", 129, "CREAT", "Creatinine", "CHEMISTRY", "1.5", "mg/dL", "0.8", "1.6", "132.6", 132.6, "umol/L", 71.0, 141.0, "NORMAL", "", 7.0, "WEEK 6", "TREATMENT", "2013-01-10T15:20", 42], [130, "CDISCPILOT01", "LB", "CDISC001", 130, "EOS", "Eosinophils", "HEMATOLOGY", "0.16", "10^9/L", "0", "0.57", "0.16", 0.16, "10^9/L", 0.0, 0.57, "NORMAL", "", 7.0, "WEEK 6", "TREATMENT", "2013-01-10T15:20", 42], [131, "CDISCPILOT01", "LB", "CDISC001", 131, "GGT", "Gamma Glutamyl Transferase", "CHEMISTRY", "37", "U/L", "10", "50", "37", 37.0, "U/L", 10.0, 50.0, "NORMAL", "", 7.0, "WEEK 6", "TREATMENT", "2013-01-10T15:20", 42], [132, "CDISCPILOT01", "LB", "CDISC001", 132, "GLUC", "Glucose", "CHEMISTRY", "91", "mg/dL", "50", "250", "5.05141", 5.05141, "mmol/L", 2.8, 13.9, "NORMAL", "", 7.0, "WEEK 6", "TREATMENT", "2013-01-10T15:20", 42], [133, "CDISCPILOT01", "LB", "CDISC001", 133, "HCT", "Hematocrit", "HEMATOLOGY", "45.0", "%", "37", "51", "0.45", 0.45, "", 0.37, 0.51, "NORMAL", "", 7.0, "WEEK 6", "TREATMENT", "2013-01-10T15:20", 42], [134, "CDISCPILOT01", "LB", "CDISC001", 134, "HGB", "Hemoglobin", "HEMATOLOGY", "14.7", "g/dL", "12.5", "17", "9.12282", 9.12282, "mmol/L", 7.76, 10.55, "NORMAL", "", 7.0, "WEEK 6", "TREATMENT", "2013-01-10T15:20", 42], [135, "CDISCPILOT01", "LB", "CDISC001", 135, "K", "Potassium", "CHEMISTRY", "5.3", "mEq/L", "3.4", "5.4", "5.3", 5.3, "mmol/L", 3.4, 5.3999999999999995, "NORMAL", "", 7.0, "WEEK 6", "TREATMENT", "2013-01-10T15:20", 42], [136, "CDISCPILOT01", "LB", "CDISC001", 136, "LYM", "Lymphocytes", "HEMATOLOGY", "1.13", "10^9/L", "0.8", "3", "1.13", 1.13, "10^9/L", 0.8, 3.0, "NORMAL", "", 7.0, "WEEK 6", "TREATMENT", "2013-01-10T15:20", 42], [137, "CDISCPILOT01", "LB", "CDISC001", 137, "MCH", "Ery. Mean Corpuscular Hemoglobin", "HEMATOLOGY", "31", "pg", "26", "34", "1.92386", 1.92386, "fmol", 1.6, 2.1, "NORMAL", "", 7.0, "WEEK 6", "TREATMENT", "2013-01-10T15:20", 42], [138, "CDISCPILOT01", "LB", "CDISC001", 138, "MCHC", "Ery. Mean Corpuscular HGB Concentration", "HEMATOLOGY", "33", "g/dL", "31", "38", "20.4798", 20.4798, "mmol/L", 19.0, 24.0, "NORMAL", "", 7.0, "WEEK 6", "TREATMENT", "2013-01-10T15:20", 42], [139, "CDISCPILOT01", "LB", "CDISC001", 139, "MCV", "Ery. Mean Corpuscular Volume", "HEMATOLOGY", "95", "fL", "80", "100", "95", 95.0, "fL", 80.0, 100.0, "NORMAL", "", 7.0, "WEEK 6", "TREATMENT", "2013-01-10T15:20", 42], [140, "CDISCPILOT01", "LB", "CDISC001", 140, "MONO", "Monocytes", "HEMATOLOGY", "0.38", "10^9/L", "0.12", "0.92", "0.38", 0.38, "10^9/L", 0.12, 0.92, "NORMAL", "", 7.0, "WEEK 6", "TREATMENT", "2013-01-10T15:20", 42], [141, "CDISCPILOT01", "LB", "CDISC001", 141, "SODIUM", "Sodium", "CHEMISTRY", "144", "mEq/L", "135", "145", "144", 144.0, "mmol/L", 135.0, 145.0, "NORMAL", "", 7.0, "WEEK 6", "TREATMENT", "2013-01-10T15:20", 42], [142, "CDISCPILOT01", "LB", "CDISC001", 142, "PHOS", "Phosphate", "CHEMISTRY", "3.7", "mg/dL", "2.2", "5.1", "1.19473", 1.19473, "mmol/L", 0.71, 1.65, "NORMAL", "", 7.0, "WEEK 6", "TREATMENT", "2013-01-10T15:20", 42], [143, "CDISCPILOT01", "LB", "CDISC001", 143, "PLAT", "Platelets", "HEMATOLOGY", "181", "10^9/L", "130", "394", "181", 181.0, "10^9/L", 130.0, 394.0, "NORMAL", "", 7.0, "WEEK 6", "TREATMENT", "2013-01-10T15:20", 42], [144, "CDISCPILOT01", "LB", "CDISC001", 144, "PROT", "Protein", "CHEMISTRY", "7.0", "g/dL", "6", "8", "70", 70.0, "g/L", 60.0, 80.0, "NORMAL", "", 7.0, "WEEK 6", "TREATMENT", "2013-01-10T15:20", 42], [145, "CDISCPILOT01", "LB", "CDISC001", 145, "RBC", "Erythrocytes", "HEMATOLOGY", "4.70", "10^12/L", "4", "5.8", "4.7", 4.699999999999999, "10^12/L", 4.0, 5.8, "NORMAL", "", 7.0, "WEEK 6", "TREATMENT", "2013-01-10T15:20", 42], [146, "CDISCPILOT01", "LB", "CDISC001", 146, "URATE", "Urate", "CHEMISTRY", "5.2", "mg/dL", "2.5", "7.5", "309.296", 309.296, "umol/L", 149.0, 446.0, "NORMAL", "", 7.0, "WEEK 6", "TREATMENT", "2013-01-10T15:20", 42], [147, "CDISCPILOT01", "LB", "CDISC001", 147, "WBC", "Leukocytes", "HEMATOLOGY", "4.52", "10^9/L", "3.8", "10.7", "4.52", 4.52, "10^9/L", 3.8, 10.7, "NORMAL", "", 7.0, "WEEK 6", "TREATMENT", "2013-01-10T15:20", 42], [148, "CDISCPILOT01", "LB", "CDISC001", 148, "ALB", "Albumin", "CHEMISTRY", "3.9", "g/dL", "3.5", "4.6", "39", 39.0, "g/L", 35.0, 46.0, "NORMAL", "", 8.0, "WEEK 8", "TREATMENT", "2013-01-23T12:13", 55], [149, "CDISCPILOT01", "LB", "CDISC001", 149, "ALP", "Alkaline Phosphatase", "CHEMISTRY", "98", "U/L", "35", "115", "98", 98.0, "U/L", 35.0, 115.0, "NORMAL", "", 8.0, "WEEK 8", "TREATMENT", "2013-01-23T12:13", 55], [150, "CDISCPILOT01", "LB", "CDISC001", 150, "ALT", "Alanine Aminotransferase", "CHEMISTRY", "16", "U/L", "6", "35", "16", 16.0, "U/L", 6.0, 35.0, "NORMAL", "", 8.0, "WEEK 8", "TREATMENT", "2013-01-23T12:13", 55], [151, "CDISCPILOT01", "LB", "CDISC001", 151, "AST", "Aspartate Aminotransferase", "CHEMISTRY", "25", "U/L", "11", "36", "25", 25.0, "U/L", 11.0, 36.0, "NORMAL", "", 8.0, "WEEK 8", "TREATMENT", "2013-01-23T12:13", 55], [152, "CDISCPILOT01", "LB", "CDISC001", 152, "BASO", "Basophils", "HEMATOLOGY", "0.04", "10^9/L", "0", "0.2", "0.04", 0.039999999999999994, "10^9/L", 0.0, 0.2, "NORMAL", "", 8.0, "WEEK 8", "TREATMENT", "2013-01-23T12:13", 55], [153, "CDISCPILOT01", "LB", "CDISC001", 153, "BILI", "Bilirubin", "CHEMISTRY", "0.5", "mg/dL", "0.2", "1.2", "8.55", 8.549999999999999, "umol/L", 3.0, 21.0, "NORMAL", "", 8.0, "WEEK 8", "TREATMENT", "2013-01-23T12:13", 55], [154, "CDISCPILOT01", "LB", "CDISC001", 154, "UREAN", "Urea Nitrogen", "CHEMISTRY", "22", "mg/dL", "4", "24", "7.854", 7.854, "mmol/L", 1.4, 8.6, "NORMAL", "", 8.0, "WEEK 8", "TREATMENT", "2013-01-23T12:13", 55], [155, "CDISCPILOT01", "LB", "CDISC001", 155, "CA", "Calcium", "CHEMISTRY", "8.9", "mg/dL", "8.4", "10.3", "2.22055", 2.22055, "mmol/L", 2.1, 2.57, "NORMAL", "", 8.0, "WEEK 8", "TREATMENT", "2013-01-23T12:13", 55], [156, "CDISCPILOT01", "LB", "CDISC001", 156, "CHOL", "Cholesterol", "CHEMISTRY", "252", "mg/dL", "149", "286", "6.51672", 6.516719999999999, "mmol/L", 3.85, 7.4, "NORMAL", "", 8.0, "WEEK 8", "TREATMENT", "2013-01-23T12:13", 55], [157, "CDISCPILOT01", "LB", "CDISC001", 157, "CK", "Creatine Kinase", "CHEMISTRY", "94", "U/L", "22", "198", "94", 94.0, "U/L", 22.0, 198.0, "NORMAL", "", 8.0, "WEEK 8", "TREATMENT", "2013-01-23T12:13", 55], [158, "CDISCPILOT01", "LB", "CDISC001", 158, "CL", "Chloride", "CHEMISTRY", "104", "mEq/L", "94", "112", "104", 104.0, "mmol/L", 94.0, 112.0, "NORMAL", "", 8.0, "WEEK 8", "TREATMENT", "2013-01-23T12:13", 55], [159, "CDISCPILOT01", "LB", "CDISC001", 159, "COLOR", "Color", "URINALYSIS", "NORMAL", "", "", "", "NORMAL", null, "", null, null, "NORMAL", "", 8.0, "WEEK 8", "TREATMENT", "2013-01-23T12:13", 55], [160, "CDISCPILOT01", "LB", "CDISC001", 160, "CREAT", "Creatinine", "CHEMISTRY", "1.3", "mg/dL", "0.8", "1.6", "114.92", 114.92, "umol/L", 71.0, 141.0, "NORMAL", "", 8.0, "WEEK 8", "TREATMENT", "2013-01-23T12:13", 55], [161, "CDISCPILOT01", "LB", "CDISC001", 161, "EOS", "Eosinophils", "HEMATOLOGY", "0.35", "10^9/L", "0", "0.57", "0.35", 0.35, "10^9/L", 0.0, 0.57, "NORMAL", "", 8.0, "WEEK 8", "TREATMENT", "2013-01-23T12:13", 55], [162, "CDISCPILOT01", "LB", "CDISC001", 162, "GGT", "Gamma Glutamyl Transferase", "CHEMISTRY", "34", "U/L", "10", "50", "34", 34.0, "U/L", 10.0, 50.0, "NORMAL", "", 8.0, "WEEK 8", "TREATMENT", "2013-01-23T12:13", 55], [163, "CDISCPILOT01", "LB", "CDISC001", 163, "GLUC", "Glucose", "CHEMISTRY", "79", "mg/dL", "50", "250", "4.38529", 4.3852899999999995, "mmol/L", 2.8, 13.9, "NORMAL", "", 8.0, "WEEK 8", "TREATMENT", "2013-01-23T12:13", 55], [164, "CDISCPILOT01", "LB", "CDISC001", 164, "HCT", "Hematocrit", "HEMATOLOGY", "45.0", "%", "37", "51", "0.45", 0.45, "", 0.37, 0.51, "NORMAL", "", 8.0, "WEEK 8", "TREATMENT", "2013-01-23T12:13", 55], [165, "CDISCPILOT01", "LB", "CDISC001", 165, "HGB", "Hemoglobin", "HEMATOLOGY", "15.2", "g/dL", "12.5", "17", "9.43312", 9.433119999999999, "mmol/L", 7.76, 10.55, "NORMAL", "", 8.0, "WEEK 8", "TREATMENT", "2013-01-23T12:13", 55], [166, "CDISCPILOT01", "LB", "CDISC001", 166, "K", "Potassium", "CHEMISTRY", "4.7", "mEq/L", "3.4", "5.4", "4.7", 4.699999999999999, "mmol/L", 3.4, 5.3999999999999995, "NORMAL", "", 8.0, "WEEK 8", "TREATMENT", "2013-01-23T12:13", 55], [167, "CDISCPILOT01", "LB", "CDISC001", 167, "KETONES", "Ketones", "URINALYSIS", "0", "", "", "", "0", 0.0, "", null, null, "NORMAL", "", 8.0, "WEEK 8", "TREATMENT", "2013-01-23T12:13", 55], [168, "CDISCPILOT01", "LB", "CDISC001", 168, "LYM", "Lymphocytes", "HEMATOLOGY", "1.13", "10^9/L", "0.8", "3", "1.13", 1.13, "10^9/L", 0.8, 3.0, "NORMAL", "", 8.0, "WEEK 8", "TREATMENT", "2013-01-23T12:13", 55], [169, "CDISCPILOT01", "LB", "CDISC001", 169, "MCH", "Ery. Mean Corpuscular Hemoglobin", "HEMATOLOGY", "32", "pg", "26", "34", "1.98592", 1.98592, "fmol", 1.6, 2.1, "NORMAL", "", 8.0, "WEEK 8", "TREATMENT", "2013-01-23T12:13", 55], [170, "CDISCPILOT01", "LB", "CDISC001", 170, "MCHC", "Ery. Mean Corpuscular HGB Concentration", "HEMATOLOGY", "34", "g/dL", "31", "38", "21.1004", 21.1004, "mmol/L", 19.0, 24.0, "NORMAL", "", 8.0, "WEEK 8", "TREATMENT", "2013-01-23T12:13", 55], [171, "CDISCPILOT01", "LB", "CDISC001", 171, "MCV", "Ery. Mean Corpuscular Volume", "HEMATOLOGY", "94", "fL", "80", "100", "94", 94.0, "fL", 80.0, 100.0, "NORMAL", "", 8.0, "WEEK 8", "TREATMENT", "2013-01-23T12:13", 55], [172, "CDISCPILOT01", "LB", "CDISC001", 172, "MONO", "Monocytes", "HEMATOLOGY", "0.41", "10^9/L", "0.12", "0.92", "0.41", 0.41, "10^9/L", 0.12, 0.92, "NORMAL", "", 8.0, "WEEK 8", "TREATMENT", "2013-01-23T12:13", 55], [173, "CDISCPILOT01", "LB", "CDISC001", 173, "SODIUM", "Sodium", "CHEMISTRY", "141", "mEq/L", "135", "145", "141", 141.0, "mmol/L", 135.0, 145.0, "NORMAL", "", 8.0, "WEEK 8", "TREATMENT", "2013-01-23T12:13", 55], [174, "CDISCPILOT01", "LB", "CDISC001", 174, "PH", "pH", "URINALYSIS", "5", "", "5", "8", "5", 5.0, "", 5.0, 8.0, "NORMAL", "", 8.0, "WEEK 8", "TREATMENT", "2013-01-23T12:13", 55], [175, "CDISCPILOT01", "LB", "CDISC001", 175, "PHOS", "Phosphate", "CHEMISTRY", "3.4", "mg/dL", "2.2", "5.1", "1.09786", 1.09786, "mmol/L", 0.71, 1.65, "NORMAL", "", 8.0, "WEEK 8", "TREATMENT", "2013-01-23T12:13", 55], [176, "CDISCPILOT01", "LB", "CDISC001", 176, "PLAT", "Platelets", "HEMATOLOGY", "174", "10^9/L", "130", "394", "174", 174.0, "10^9/L", 130.0, 394.0, "NORMAL", "", 8.0, "WEEK 8", "TREATMENT", "2013-01-23T12:13", 55], [177, "CDISCPILOT01", "LB", "CDISC001", 177, "PROT", "Protein", "CHEMISTRY", "7.1", "g/dL", "6", "8", "71", 71.0, "g/L", 60.0, 80.0, "NORMAL", "", 8.0, "WEEK 8", "TREATMENT", "2013-01-23T12:13", 55], [178, "CDISCPILOT01", "LB", "CDISC001", 178, "RBC", "Erythrocytes", "HEMATOLOGY", "4.80", "10^12/L", "4", "5.8", "4.8", 4.8, "10^12/L", 4.0, 5.8, "NORMAL", "", 8.0, "WEEK 8", "TREATMENT", "2013-01-23T12:13", 55], [179, "CDISCPILOT01", "LB", "CDISC001", 179, "SPGRAV", "Specific Gravity", "URINALYSIS", "1.023", "", "1.006", "1.03", "1.023", 1.023, "", 1.006, 1.03, "NORMAL", "", 8.0, "WEEK 8", "TREATMENT", "2013-01-23T12:13", 55], [180, "CDISCPILOT01", "LB", "CDISC001", 180, "URATE", "Urate", "CHEMISTRY", "4.5", "mg/dL", "2.5", "7.5", "267.66", 267.66, "umol/L", 149.0, 446.0, "NORMAL", "", 8.0, "WEEK 8", "TREATMENT", "2013-01-23T12:13", 55], [181, "CDISCPILOT01", "LB", "CDISC001", 181, "UROBIL", "Urobilinogen", "URINALYSIS", "0", "", "", "", "0", 0.0, "", null, null, "NORMAL", "", 8.0, "WEEK 8", "TREATMENT", "2013-01-23T12:13", 55], [182, "CDISCPILOT01", "LB", "CDISC001", 182, "WBC", "Leukocytes", "HEMATOLOGY", "4.98", "10^9/L", "3.8", "10.7", "4.98", 4.98, "10^9/L", 3.8, 10.7, "NORMAL", "", 8.0, "WEEK 8", "TREATMENT", "2013-01-23T12:13", 55], [183, "CDISCPILOT01", "LB", "CDISC002", 1, "ALB", "Albumin", "CHEMISTRY", "4.2", "g/dL", "3.5", "4.6", "42", 42.0, "g/L", 35.0, 46.0, "NORMAL", "Y", 1.0, "SCREENING 1", "SCREENING", "2012-10-30T14:26", -16], [184, "CDISCPILOT01", "LB", "CDISC002", 2, "ALP", "Alkaline Phosphatase", "CHEMISTRY", "106", "U/L", "35", "115", "106", 106.0, "U/L", 35.0, 115.0, "NORMAL", "Y", 1.0, "SCREENING 1", "SCREENING", "2012-10-30T14:26", -16], [185, "CDISCPILOT01", "LB", "CDISC002", 3, "ALT", "Alanine Aminotransferase", "CHEMISTRY", "19", "U/L", "6", "32", "19", 19.0, "U/L", 6.0, 32.0, "NORMAL", "Y", 1.0, "SCREENING 1", "SCREENING", "2012-10-30T14:26", -16], [186, "CDISCPILOT01", "LB", "CDISC002", 4, "AST", "Aspartate Aminotransferase", "CHEMISTRY", "20", "U/L", "9", "34", "20", 20.0, "U/L", 9.0, 34.0, "NORMAL", "Y", 1.0, "SCREENING 1", "SCREENING", "2012-10-30T14:26", -16], [187, "CDISCPILOT01", "LB", "CDISC002", 5, "BASO", "Basophils", "HEMATOLOGY", "0.10", "10^9/L", "0", "0.2", "0.1", 0.1, "10^9/L", 0.0, 0.2, "NORMAL", "Y", 1.0, "SCREENING 1", "SCREENING", "2012-10-30T14:26", -16], [188, "CDISCPILOT01", "LB", "CDISC002", 6, "BILI", "Bilirubin", "CHEMISTRY", "1.1", "mg/dL", "0.2", "1.2", "18.81", 18.81, "umol/L", 3.0, 21.0, "NORMAL", "Y", 1.0, "SCREENING 1", "SCREENING", "2012-10-30T14:26", -16], [189, "CDISCPILOT01", "LB", "CDISC002", 7, "UREAN", "Urea Nitrogen", "CHEMISTRY", "18", "mg/dL", "4", "24", "6.426", 6.425999999999999, "mmol/L", 1.4, 8.6, "NORMAL", "Y", 1.0, "SCREENING 1", "SCREENING", "2012-10-30T14:26", -16], [190, "CDISCPILOT01", "LB", "CDISC002", 8, "CA", "Calcium", "CHEMISTRY", "9.3", "mg/dL", "8.4", "10.3", "2.32035", 2.32035, "mmol/L", 2.1, 2.57, "NORMAL", "Y", 1.0, "SCREENING 1", "SCREENING", "2012-10-30T14:26", -16], [191, "CDISCPILOT01", "LB", "CDISC002", 9, "CHOL", "Cholesterol", "CHEMISTRY", "191", "mg/dL", "156", "300", "4.93926", 4.93926, "mmol/L", 4.029999999999999, 7.76, "NORMAL", "Y", 1.0, "SCREENING 1", "SCREENING", "2012-10-30T14:26", -16], [192, "CDISCPILOT01", "LB", "CDISC002", 10, "CK", "Creatine Kinase", "CHEMISTRY", "91", "U/L", "21", "169", "91", 91.0, "U/L", 21.0, 169.0, "NORMAL", "Y", 1.0, "SCREENING 1", "SCREENING", "2012-10-30T14:26", -16], [193, "CDISCPILOT01", "LB", "CDISC002", 11, "CL", "Chloride", "CHEMISTRY", "100", "mEq/L", "94", "112", "100", 100.0, "mmol/L", 94.0, 112.0, "NORMAL", "Y", 1.0, "SCREENING 1", "SCREENING", "2012-10-30T14:26", -16], [194, "CDISCPILOT01", "LB", "CDISC002", 12, "COLOR", "Color", "URINALYSIS", "NORMAL", "", "", "", "NORMAL", null, "", null, null, "NORMAL", "Y", 1.0, "SCREENING 1", "SCREENING", "2012-10-30T14:26", -16], [195, "CDISCPILOT01", "LB", "CDISC002", 13, "CREAT", "Creatinine", "CHEMISTRY", "1.1", "mg/dL", "0.7", "1.4", "97.24", 97.24, "umol/L", 62.0, 124.0, "NORMAL", "Y", 1.0, "SCREENING 1", "SCREENING", "2012-10-30T14:26", -16], [196, "CDISCPILOT01", "LB", "CDISC002", 14, "EOS", "Eosinophils", "HEMATOLOGY", "0.05", "10^9/L", "0", "0.57", "0.05", 0.05, "10^9/L", 0.0, 0.57, "NORMAL", "Y", 1.0, "SCREENING 1", "SCREENING", "2012-10-30T14:26", -16], [197, "CDISCPILOT01", "LB", "CDISC002", 15, "GGT", "Gamma Glutamyl Transferase", "CHEMISTRY", "22", "U/L", "5", "50", "22", 22.0, "U/L", 5.0, 50.0, "NORMAL", "Y", 1.0, "SCREENING 1", "SCREENING", "2012-10-30T14:26", -16], [198, "CDISCPILOT01", "LB", "CDISC002", 16, "GLUC", "Glucose", "CHEMISTRY", "91", "mg/dL", "50", "250", "5.05141", 5.05141, "mmol/L", 2.8, 13.9, "NORMAL", "Y", 1.0, "SCREENING 1", "SCREENING", "2012-10-30T14:26", -16], [199, "CDISCPILOT01", "LB", "CDISC002", 17, "HCT", "Hematocrit", "HEMATOLOGY", "47.0", "%", "34", "48", "0.47", 0.47, "", 0.33999999999999997, 0.48, "NORMAL", "Y", 1.0, "SCREENING 1", "SCREENING", "2012-10-30T14:26", -16], [200, "CDISCPILOT01", "LB", "CDISC002", 18, "HGB", "Hemoglobin", "HEMATOLOGY", "15.2", "g/dL", "11.5", "15.8", "9.43312", 9.433119999999999, "mmol/L", 7.14, 9.809999999999999, "NORMAL", "Y", 1.0, "SCREENING 1", "SCREENING", "2012-10-30T14:26", -16], [201, "CDISCPILOT01", "LB", "CDISC002", 19, "K", "Potassium", "CHEMISTRY", "3.9", "mEq/L", "3.4", "5.4", "3.9", 3.9, "mmol/L", 3.4, 5.3999999999999995, "NORMAL", "Y", 1.0, "SCREENING 1", "SCREENING", "2012-10-30T14:26", -16], [202, "CDISCPILOT01", "LB", "CDISC002", 20, "KETONES", "Ketones", "URINALYSIS", "1", "", "", "", "1", 1.0, "", null, null, "ABNORMAL", "Y", 1.0, "SCREENING 1", "SCREENING", "2012-10-30T14:26", -16], [203, "CDISCPILOT01", "LB", "CDISC002", 21, "LYM", "Lymphocytes", "HEMATOLOGY", "1.20", "10^9/L", "0.8", "3", "1.2", 1.2, "10^9/L", 0.8, 3.0, "NORMAL", "Y", 1.0, "SCREENING 1", "SCREENING", "2012-10-30T14:26", -16], [204, "CDISCPILOT01", "LB", "CDISC002", 22, "MCH", "Ery. Mean Corpuscular Hemoglobin", "HEMATOLOGY", "30", "pg", "26", "34", "1.8618", 1.8618, "fmol", 1.6, 2.1, "NORMAL", "Y", 1.0, "SCREENING 1", "SCREENING", "2012-10-30T14:26", -16], [205, "CDISCPILOT01", "LB", "CDISC002", 23, "MCHC", "Ery. Mean Corpuscular HGB Concentration", "HEMATOLOGY", "32", "g/dL", "31", "38", "19.8592", 19.8592, "mmol/L", 19.0, 24.0, "NORMAL", "Y", 1.0, "SCREENING 1", "SCREENING", "2012-10-30T14:26", -16], [206, "CDISCPILOT01", "LB", "CDISC002", 24, "MCV", "Ery. Mean Corpuscular Volume", "HEMATOLOGY", "93", "fL", "80", "100", "93", 93.0, "fL", 80.0, 100.0, "NORMAL", "Y", 1.0, "SCREENING 1", "SCREENING", "2012-10-30T14:26", -16], [207, "CDISCPILOT01", "LB", "CDISC002", 25, "MONO", "Monocytes", "HEMATOLOGY", "0.64", "10^9/L", "0.12", "0.92", "0.64", 0.64, "10^9/L", 0.12, 0.92, "NORMAL", "Y", 1.0, "SCREENING 1", "SCREENING", "2012-10-30T14:26", -16], [208, "CDISCPILOT01", "LB", "CDISC002", 26, "SODIUM", "Sodium", "CHEMISTRY", "133", "mEq/L", "135", "145", "133", 133.0, "mmol/L", 135.0, 145.0, "LOW", "Y", 1.0, "SCREENING 1", "SCREENING", "2012-10-30T14:26", -16], [209, "CDISCPILOT01", "LB", "CDISC002", 27, "PH", "pH", "URINALYSIS", "5", "", "5", "8", "5", 5.0, "", 5.0, 8.0, "NORMAL", "Y", 1.0, "SCREENING 1", "SCREENING", "2012-10-30T14:26", -16], [210, "CDISCPILOT01", "LB", "CDISC002", 28, "PHOS", "Phosphate", "CHEMISTRY", "3.7", "mg/dL", "2.2", "5.1", "1.19473", 1.19473, "mmol/L", 0.71, 1.65, "NORMAL", "Y", 1.0, "SCREENING 1", "SCREENING", "2012-10-30T14:26", -16], [211, "CDISCPILOT01", "LB", "CDISC002", 29, "PLAT", "Platelets", "HEMATOLOGY", "347", "10^9/L", "130", "394", "347", 347.0, "10^9/L", 130.0, 394.0, "NORMAL", "Y", 1.0, "SCREENING 1", "SCREENING", "2012-10-30T14:26", -16], [212, "CDISCPILOT01", "LB", "CDISC002", 30, "PROT", "Protein", "CHEMISTRY", "7.6", "g/dL", "6", "8", "76", 76.0, "g/L", 60.0, 80.0, "NORMAL", "Y", 1.0, "SCREENING 1", "SCREENING", "2012-10-30T14:26", -16], [213, "CDISCPILOT01", "LB", "CDISC002", 31, "RBC", "Erythrocytes", "HEMATOLOGY", "5.10", "10^12/L", "3.9", "5.5", "5.1", 5.1, "10^12/L", 3.9, 5.5, "NORMAL", "Y", 1.0, "SCREENING 1", "SCREENING", "2012-10-30T14:26", -16], [214, "CDISCPILOT01", "LB", "CDISC002", 32, "SPGRAV", "Specific Gravity", "URINALYSIS", "1.021", "", "1.006", "1.03", "1.021", 1.021, "", 1.006, 1.03, "NORMAL", "Y", 1.0, "SCREENING 1", "SCREENING", "2012-10-30T14:26", -16], [215, "CDISCPILOT01", "LB", "CDISC002", 33, "TSH", "Thyrotropin", "OTHER", "1.75", "mIU/L", ".32", "5", "1.75", 1.75, "mU/L", 0.32, 5.0, "NORMAL", "Y", 1.0, "SCREENING 1", "SCREENING", "2012-10-30T14:26", -16], [216, "CDISCPILOT01", "LB", "CDISC002", 34, "URATE", "Urate", "CHEMISTRY", "4.6", "mg/dL", "2.5", "7.5", "273.608", 273.608, "umol/L", 149.0, 446.0, "NORMAL", "Y", 1.0, "SCREENING 1", "SCREENING", "2012-10-30T14:26", -16], [217, "CDISCPILOT01", "LB", "CDISC002", 35, "UROBIL", "Urobilinogen", "URINALYSIS", "0", "", "", "", "0", 0.0, "", null, null, "NORMAL", "Y", 1.0, "SCREENING 1", "SCREENING", "2012-10-30T14:26", -16], [218, "CDISCPILOT01", "LB", "CDISC002", 36, "VITB12", "Vitamin B12", "OTHER", "427", "ng/L", "200", "900", "315.0406", 315.0406, "pmol/L", 148.0, 664.0, "NORMAL", "Y", 1.0, "SCREENING 1", "SCREENING", "2012-10-30T14:26", -16], [219, "CDISCPILOT01", "LB", "CDISC002", 37, "WBC", "Leukocytes", "HEMATOLOGY", "7.18", "10^9/L", "3.8", "10.7", "7.18", 7.18, "10^9/L", 3.8, 10.7, "NORMAL", "Y", 1.0, "SCREENING 1", "SCREENING", "2012-10-30T14:26", -16], [220, "CDISCPILOT01", "LB", "CDISC002", 38, "ALB", "Albumin", "CHEMISTRY", "3.4", "g/dL", "3.5", "4.6", "34", 34.0, "g/L", 35.0, 46.0, "LOW", "", 4.0, "WEEK 2", "TREATMENT", "2012-11-28T10:00", 14], [221, "CDISCPILOT01", "LB", "CDISC002", 39, "ALP", "Alkaline Phosphatase", "CHEMISTRY", "103", "U/L", "35", "115", "103", 103.0, "U/L", 35.0, 115.0, "NORMAL", "", 4.0, "WEEK 2", "TREATMENT", "2012-11-28T10:00", 14], [222, "CDISCPILOT01", "LB", "CDISC002", 40, "ALT", "Alanine Aminotransferase", "CHEMISTRY", "19", "U/L", "6", "32", "19", 19.0, "U/L", 6.0, 32.0, "NORMAL", "", 4.0, "WEEK 2", "TREATMENT", "2012-11-28T10:00", 14], [223, "CDISCPILOT01", "LB", "CDISC002", 41, "AST", "Aspartate Aminotransferase", "CHEMISTRY", "10", "U/L", "9", "34", "10", 10.0, "U/L", 9.0, 34.0, "NORMAL", "", 4.0, "WEEK 2", "TREATMENT", "2012-11-28T10:00", 14], [224, "CDISCPILOT01", "LB", "CDISC002", 42, "BASO", "Basophils", "HEMATOLOGY", "0.03", "10^9/L", "0", "0.2", "0.03", 0.03, "10^9/L", 0.0, 0.2, "NORMAL", "", 4.0, "WEEK 2", "TREATMENT", "2012-11-28T10:00", 14], [225, "CDISCPILOT01", "LB", "CDISC002", 43, "BILI", "Bilirubin", "CHEMISTRY", "1.5", "mg/dL", "0.2", "1.2", "25.65", 25.65, "umol/L", 3.0, 21.0, "HIGH", "", 4.0, "WEEK 2", "TREATMENT", "2012-11-28T10:00", 14], [226, "CDISCPILOT01", "LB", "CDISC002", 44, "UREAN", "Urea Nitrogen", "CHEMISTRY", "27", "mg/dL", "4", "24", "9.639", 9.639, "mmol/L", 1.4, 8.6, "HIGH", "", 4.0, "WEEK 2", "TREATMENT", "2012-11-28T10:00", 14], [227, "CDISCPILOT01", "LB", "CDISC002", 45, "CA", "Calcium", "CHEMISTRY", "8.6", "mg/dL", "8.4", "10.3", "2.1457", 2.1456999999999997, "mmol/L", 2.1, 2.57, "NORMAL", "", 4.0, "WEEK 2", "TREATMENT", "2012-11-28T10:00", 14], [228, "CDISCPILOT01", "LB", "CDISC002", 46, "CHOL", "Cholesterol", "CHEMISTRY", "167", "mg/dL", "156", "300", "4.31862", 4.318619999999999, "mmol/L", 4.029999999999999, 7.76, "NORMAL", "", 4.0, "WEEK 2", "TREATMENT", "2012-11-28T10:00", 14], [229, "CDISCPILOT01", "LB", "CDISC002", 47, "CK", "Creatine Kinase", "CHEMISTRY", "114", "U/L", "21", "169", "114", 114.0, "U/L", 21.0, 169.0, "NORMAL", "", 4.0, "WEEK 2", "TREATMENT", "2012-11-28T10:00", 14], [230, "CDISCPILOT01", "LB", "CDISC002", 48, "CL", "Chloride", "CHEMISTRY", "97", "mEq/L", "94", "112", "97", 97.0, "mmol/L", 94.0, 112.0, "NORMAL", "", 4.0, "WEEK 2", "TREATMENT", "2012-11-28T10:00", 14], [231, "CDISCPILOT01", "LB", "CDISC002", 49, "COLOR", "Color", "URINALYSIS", "NORMAL", "", "", "", "NORMAL", null, "", null, null, "NORMAL", "", 4.0, "WEEK 2", "TREATMENT", "2012-11-28T10:00", 14], [232, "CDISCPILOT01", "LB", "CDISC002", 50, "CREAT", "Creatinine", "CHEMISTRY", "1.2", "mg/dL", "0.7", "1.4", "106.08", 106.08, "umol/L", 62.0, 124.0, "NORMAL", "", 4.0, "WEEK 2", "TREATMENT", "2012-11-28T10:00", 14], [233, "CDISCPILOT01", "LB", "CDISC002", 51, "EOS", "Eosinophils", "HEMATOLOGY", "0.06", "10^9/L", "0", "0.57", "0.06", 0.06, "10^9/L", 0.0, 0.57, "NORMAL", "", 4.0, "WEEK 2", "TREATMENT", "2012-11-28T10:00", 14], [234, "CDISCPILOT01", "LB", "CDISC002", 52, "GGT", "Gamma Glutamyl Transferase", "CHEMISTRY", "25", "U/L", "5", "50", "25", 25.0, "U/L", 5.0, 50.0, "NORMAL", "", 4.0, "WEEK 2", "TREATMENT", "2012-11-28T10:00", 14], [235, "CDISCPILOT01", "LB", "CDISC002", 53, "GLUC", "Glucose", "CHEMISTRY", "72", "mg/dL", "50", "250", "3.99672", 3.99672, "mmol/L", 2.8, 13.9, "NORMAL", "", 4.0, "WEEK 2", "TREATMENT", "2012-11-28T10:00", 14], [236, "CDISCPILOT01", "LB", "CDISC002", 54, "HCT", "Hematocrit", "HEMATOLOGY", "42.0", "%", "34", "48", "0.42", 0.42, "", 0.33999999999999997, 0.48, "NORMAL", "", 4.0, "WEEK 2", "TREATMENT", "2012-11-28T10:00", 14], [237, "CDISCPILOT01", "LB", "CDISC002", 55, "HGB", "Hemoglobin", "HEMATOLOGY", "13.8", "g/dL", "11.5", "15.8", "8.56428", 8.564279999999998, "mmol/L", 7.14, 9.809999999999999, "NORMAL", "", 4.0, "WEEK 2", "TREATMENT", "2012-11-28T10:00", 14], [238, "CDISCPILOT01", "LB", "CDISC002", 56, "K", "Potassium", "CHEMISTRY", "3.6", "mEq/L", "3.4", "5.4", "3.6", 3.6, "mmol/L", 3.4, 5.3999999999999995, "NORMAL", "", 4.0, "WEEK 2", "TREATMENT", "2012-11-28T10:00", 14], [239, "CDISCPILOT01", "LB", "CDISC002", 57, "KETONES", "Ketones", "URINALYSIS", "0", "", "", "", "0", 0.0, "", null, null, "NORMAL", "", 4.0, "WEEK 2", "TREATMENT", "2012-11-28T10:00", 14], [240, "CDISCPILOT01", "LB", "CDISC002", 58, "LYM", "Lymphocytes", "HEMATOLOGY", "1.17", "10^9/L", "0.8", "3", "1.17", 1.17, "10^9/L", 0.8, 3.0, "NORMAL", "", 4.0, "WEEK 2", "TREATMENT", "2012-11-28T10:00", 14], [241, "CDISCPILOT01", "LB", "CDISC002", 59, "MCH", "Ery. Mean Corpuscular Hemoglobin", "HEMATOLOGY", "31", "pg", "26", "34", "1.92386", 1.92386, "fmol", 1.6, 2.1, "NORMAL", "", 4.0, "WEEK 2", "TREATMENT", "2012-11-28T10:00", 14], [242, "CDISCPILOT01", "LB", "CDISC002", 60, "MCHC", "Ery. Mean Corpuscular HGB Concentration", "HEMATOLOGY", "33", "g/dL", "31", "38", "20.4798", 20.4798, "mmol/L", 19.0, 24.0, "NORMAL", "", 4.0, "WEEK 2", "TREATMENT", "2012-11-28T10:00", 14], [243, "CDISCPILOT01", "LB", "CDISC002", 61, "MCV", "Ery. Mean Corpuscular Volume", "HEMATOLOGY", "92", "fL", "80", "100", "92", 92.0, "fL", 80.0, 100.0, "NORMAL", "", 4.0, "WEEK 2", "TREATMENT", "2012-11-28T10:00", 14], [244, "CDISCPILOT01", "LB", "CDISC002", 62, "MONO", "Monocytes", "HEMATOLOGY", "0.92", "10^9/L", "0.12", "0.92", "0.92", 0.92, "10^9/L", 0.12, 0.92, "NORMAL", "", 4.0, "WEEK 2", "TREATMENT", "2012-11-28T10:00", 14], [245, "CDISCPILOT01", "LB", "CDISC002", 63, "SODIUM", "Sodium", "CHEMISTRY", "137", "mEq/L", "135", "145", "137", 137.0, "mmol/L", 135.0, 145.0, "NORMAL", "", 4.0, "WEEK 2", "TREATMENT", "2012-11-28T10:00", 14], [246, "CDISCPILOT01", "LB", "CDISC002", 64, "PH", "pH", "URINALYSIS", "5", "", "5", "8", "5", 5.0, "", 5.0, 8.0, "NORMAL", "", 4.0, "WEEK 2", "TREATMENT", "2012-11-28T10:00", 14], [247, "CDISCPILOT01", "LB", "CDISC002", 65, "PHOS", "Phosphate", "CHEMISTRY", "4.1", "mg/dL", "2.2", "5.1", "1.32389", 1.32389, "mmol/L", 0.71, 1.65, "NORMAL", "", 4.0, "WEEK 2", "TREATMENT", "2012-11-28T10:00", 14], [248, "CDISCPILOT01", "LB", "CDISC002", 66, "PLAT", "Platelets", "HEMATOLOGY", "330", "10^9/L", "130", "394", "330", 330.0, "10^9/L", 130.0, 394.0, "NORMAL", "", 4.0, "WEEK 2", "TREATMENT", "2012-11-28T10:00", 14], [249, "CDISCPILOT01", "LB", "CDISC002", 67, "PROT", "Protein", "CHEMISTRY", "6.6", "g/dL", "6", "8", "66", 66.0, "g/L", 60.0, 80.0, "NORMAL", "", 4.0, "WEEK 2", "TREATMENT", "2012-11-28T10:00", 14], [250, "CDISCPILOT01", "LB", "CDISC002", 68, "RBC", "Erythrocytes", "HEMATOLOGY", "4.50", "10^12/L", "3.9", "5.5", "4.5", 4.5, "10^12/L", 3.9, 5.5, "NORMAL", "", 4.0, "WEEK 2", "TREATMENT", "2012-11-28T10:00", 14], [251, "CDISCPILOT01", "LB", "CDISC002", 69, "SPGRAV", "Specific Gravity", "URINALYSIS", "1.016", "", "1.006", "1.03", "1.016", 1.016, "", 1.006, 1.03, "NORMAL", "", 4.0, "WEEK 2", "TREATMENT", "2012-11-28T10:00", 14], [252, "CDISCPILOT01", "LB", "CDISC002", 70, "URATE", "Urate", "CHEMISTRY", "5.0", "mg/dL", "2.5", "7.5", "297.4", 297.4, "umol/L", 149.0, 446.0, "NORMAL", "", 4.0, "WEEK 2", "TREATMENT", "2012-11-28T10:00", 14], [253, "CDISCPILOT01", "LB", "CDISC002", 71, "UROBIL", "Urobilinogen", "URINALYSIS", "0", "", "", "", "0", 0.0, "", null, null, "NORMAL", "", 4.0, "WEEK 2", "TREATMENT", "2012-11-28T10:00", 14], [254, "CDISCPILOT01", "LB", "CDISC002", 72, "WBC", "Leukocytes", "HEMATOLOGY", "8.17", "10^9/L", "3.8", "10.7", "8.17", 8.17, "10^9/L", 3.8, 10.7, "NORMAL", "", 4.0, "WEEK 2", "TREATMENT", "2012-11-28T10:00", 14], [255, "CDISCPILOT01", "LB", "CDISC002", 73, "ALB", "Albumin", "CHEMISTRY", "3.6", "g/dL", "3.5", "4.6", "36", 36.0, "g/L", 35.0, 46.0, "NORMAL", "", 5.0, "WEEK 4", "TREATMENT", "2012-12-11T12:16", 27], [256, "CDISCPILOT01", "LB", "CDISC002", 74, "ALP", "Alkaline Phosphatase", "CHEMISTRY", "136", "U/L", "35", "115", "136", 136.0, "U/L", 35.0, 115.0, "HIGH", "", 5.0, "WEEK 4", "TREATMENT", "2012-12-11T12:16", 27], [257, "CDISCPILOT01", "LB", "CDISC002", 75, "ALT", "Alanine Aminotransferase", "CHEMISTRY", "14", "U/L", "6", "32", "14", 14.0, "U/L", 6.0, 32.0, "NORMAL", "", 5.0, "WEEK 4", "TREATMENT", "2012-12-11T12:16", 27], [258, "CDISCPILOT01", "LB", "CDISC002", 76, "AST", "Aspartate Aminotransferase", "CHEMISTRY", "15", "U/L", "9", "34", "15", 15.0, "U/L", 9.0, 34.0, "NORMAL", "", 5.0, "WEEK 4", "TREATMENT", "2012-12-11T12:16", 27], [259, "CDISCPILOT01", "LB", "CDISC002", 77, "BASO", "Basophils", "HEMATOLOGY", "0.04", "10^9/L", "0", "0.2", "0.04", 0.039999999999999994, "10^9/L", 0.0, 0.2, "NORMAL", "", 5.0, "WEEK 4", "TREATMENT", "2012-12-11T12:16", 27], [260, "CDISCPILOT01", "LB", "CDISC002", 78, "BILI", "Bilirubin", "CHEMISTRY", "0.9", "mg/dL", "0.2", "1.2", "15.39", 15.39, "umol/L", 3.0, 21.0, "NORMAL", "", 5.0, "WEEK 4", "TREATMENT", "2012-12-11T12:16", 27], [261, "CDISCPILOT01", "LB", "CDISC002", 79, "UREAN", "Urea Nitrogen", "CHEMISTRY", "21", "mg/dL", "4", "24", "7.497", 7.497, "mmol/L", 1.4, 8.6, "NORMAL", "", 5.0, "WEEK 4", "TREATMENT", "2012-12-11T12:16", 27], [262, "CDISCPILOT01", "LB", "CDISC002", 80, "CA", "Calcium", "CHEMISTRY", "9.0", "mg/dL", "8.4", "10.3", "2.2455", 2.2455, "mmol/L", 2.1, 2.57, "NORMAL", "", 5.0, "WEEK 4", "TREATMENT", "2012-12-11T12:16", 27], [263, "CDISCPILOT01", "LB", "CDISC002", 81, "CHOL", "Cholesterol", "CHEMISTRY", "205", "mg/dL", "156", "300", "5.3013", 5.3012999999999995, "mmol/L", 4.029999999999999, 7.76, "NORMAL", "", 5.0, "WEEK 4", "TREATMENT", "2012-12-11T12:16", 27], [264, "CDISCPILOT01", "LB", "CDISC002", 82, "CK", "Creatine Kinase", "CHEMISTRY", "61", "U/L", "21", "169", "61", 61.0, "U/L", 21.0, 169.0, "NORMAL", "", 5.0, "WEEK 4", "TREATMENT", "2012-12-11T12:16", 27], [265, "CDISCPILOT01", "LB", "CDISC002", 83, "CL", "Chloride", "CHEMISTRY", "101", "mEq/L", "94", "112", "101", 101.0, "mmol/L", 94.0, 112.0, "NORMAL", "", 5.0, "WEEK 4", "TREATMENT", "2012-12-11T12:16", 27], [266, "CDISCPILOT01", "LB", "CDISC002", 84, "CREAT", "Creatinine", "CHEMISTRY", "1.1", "mg/dL", "0.7", "1.4", "97.24", 97.24, "umol/L", 62.0, 124.0, "NORMAL", "", 5.0, "WEEK 4", "TREATMENT", "2012-12-11T12:16", 27], [267, "CDISCPILOT01", "LB", "CDISC002", 85, "EOS", "Eosinophils", "HEMATOLOGY", "0.04", "10^9/L", "0", "0.57", "0.04", 0.039999999999999994, "10^9/L", 0.0, 0.57, "NORMAL", "", 5.0, "WEEK 4", "TREATMENT", "2012-12-11T12:16", 27], [268, "CDISCPILOT01", "LB", "CDISC002", 86, "GGT", "Gamma Glutamyl Transferase", "CHEMISTRY", "20", "U/L", "5", "50", "20", 20.0, "U/L", 5.0, 50.0, "NORMAL", "", 5.0, "WEEK 4", "TREATMENT", "2012-12-11T12:16", 27], [269, "CDISCPILOT01", "LB", "CDISC002", 87, "GLUC", "Glucose", "CHEMISTRY", "73", "mg/dL", "50", "250", "4.05223", 4.05223, "mmol/L", 2.8, 13.9, "NORMAL", "", 5.0, "WEEK 4", "TREATMENT", "2012-12-11T12:16", 27], [270, "CDISCPILOT01", "LB", "CDISC002", 88, "HCT", "Hematocrit", "HEMATOLOGY", "40.0", "%", "34", "48", "0.4", 0.4, "", 0.33999999999999997, 0.48, "NORMAL", "", 5.0, "WEEK 4", "TREATMENT", "2012-12-11T12:16", 27], [271, "CDISCPILOT01", "LB", "CDISC002", 89, "HGB", "Hemoglobin", "HEMATOLOGY", "13.2", "g/dL", "11.5", "15.8", "8.19192", 8.19192, "mmol/L", 7.14, 9.809999999999999, "NORMAL", "", 5.0, "WEEK 4", "TREATMENT", "2012-12-11T12:16", 27], [272, "CDISCPILOT01", "LB", "CDISC002", 90, "K", "Potassium", "CHEMISTRY", "4.2", "mEq/L", "3.4", "5.4", "4.2", 4.199999999999999, "mmol/L", 3.4, 5.3999999999999995, "NORMAL", "", 5.0, "WEEK 4", "TREATMENT", "2012-12-11T12:16", 27], [273, "CDISCPILOT01", "LB", "CDISC002", 91, "LYM", "Lymphocytes", "HEMATOLOGY", "1.18", "10^9/L", "0.8", "3", "1.18", 1.18, "10^9/L", 0.8, 3.0, "NORMAL", "", 5.0, "WEEK 4", "TREATMENT", "2012-12-11T12:16", 27], [274, "CDISCPILOT01", "LB", "CDISC002", 92, "MCH", "Ery. Mean Corpuscular Hemoglobin", "HEMATOLOGY", "30", "pg", "26", "34", "1.8618", 1.8618, "fmol", 1.6, 2.1, "NORMAL", "", 5.0, "WEEK 4", "TREATMENT", "2012-12-11T12:16", 27], [275, "CDISCPILOT01", "LB", "CDISC002", 93, "MCHC", "Ery. Mean Corpuscular HGB Concentration", "HEMATOLOGY", "33", "g/dL", "31", "38", "20.4798", 20.4798, "mmol/L", 19.0, 24.0, "NORMAL", "", 5.0, "WEEK 4", "TREATMENT", "2012-12-11T12:16", 27], [276, "CDISCPILOT01", "LB", "CDISC002", 94, "MCV", "Ery. Mean Corpuscular Volume", "HEMATOLOGY", "92", "fL", "80", "100", "92", 92.0, "fL", 80.0, 100.0, "NORMAL", "", 5.0, "WEEK 4", "TREATMENT", "2012-12-11T12:16", 27], [277, "CDISCPILOT01", "LB", "CDISC002", 95, "MONO", "Monocytes", "HEMATOLOGY", "0.88", "10^9/L", "0.12", "0.92", "0.88", 0.88, "10^9/L", 0.12, 0.92, "NORMAL", "", 5.0, "WEEK 4", "TREATMENT", "2012-12-11T12:16", 27], [278, "CDISCPILOT01", "LB", "CDISC002", 96, "SODIUM", "Sodium", "CHEMISTRY", "133", "mEq/L", "135", "145", "133", 133.0, "mmol/L", 135.0, 145.0, "LOW", "", 5.0, "WEEK 4", "TREATMENT", "2012-12-11T12:16", 27], [279, "CDISCPILOT01", "LB", "CDISC002", 97, "PHOS", "Phosphate", "CHEMISTRY", "3.4", "mg/dL", "2.2", "5.1", "1.09786", 1.09786, "mmol/L", 0.71, 1.65, "NORMAL", "", 5.0, "WEEK 4", "TREATMENT", "2012-12-11T12:16", 27], [280, "CDISCPILOT01", "LB", "CDISC002", 98, "PLAT", "Platelets", "HEMATOLOGY", "379", "10^9/L", "130", "394", "379", 379.0, "10^9/L", 130.0, 394.0, "NORMAL", "", 5.0, "WEEK 4", "TREATMENT", "2012-12-11T12:16", 27], [281, "CDISCPILOT01", "LB", "CDISC002", 99, "PROT", "Protein", "CHEMISTRY", "6.7", "g/dL", "6", "8", "67", 67.0, "g/L", 60.0, 80.0, "NORMAL", "", 5.0, "WEEK 4", "TREATMENT", "2012-12-11T12:16", 27], [282, "CDISCPILOT01", "LB", "CDISC002", 100, "RBC", "Erythrocytes", "HEMATOLOGY", "4.40", "10^12/L", "3.9", "5.5", "4.4", 4.3999999999999995, "10^12/L", 3.9, 5.5, "NORMAL", "", 5.0, "WEEK 4", "TREATMENT", "2012-12-11T12:16", 27], [283, "CDISCPILOT01", "LB", "CDISC002", 101, "URATE", "Urate", "CHEMISTRY", "3.9", "mg/dL", "2.5", "7.5", "231.972", 231.972, "umol/L", 149.0, 446.0, "NORMAL", "", 5.0, "WEEK 4", "TREATMENT", "2012-12-11T12:16", 27], [284, "CDISCPILOT01", "LB", "CDISC002", 102, "WBC", "Leukocytes", "HEMATOLOGY", "7.53", "10^9/L", "3.8", "10.7", "7.53", 7.53, "10^9/L", 3.8, 10.7, "NORMAL", "", 5.0, "WEEK 4", "TREATMENT", "2012-12-11T12:16", 27], [285, "CDISCPILOT01", "LB", "CDISC002", 103, "ALB", "Albumin", "CHEMISTRY", "3.3", "g/dL", "3.5", "4.6", "33", 33.0, "g/L", 35.0, 46.0, "LOW", "", 7.0, "WEEK 6", "TREATMENT", "2012-12-25T14:00", 41], [286, "CDISCPILOT01", "LB", "CDISC002", 104, "ALP", "Alkaline Phosphatase", "CHEMISTRY", "132", "U/L", "35", "115", "132", 132.0, "U/L", 35.0, 115.0, "HIGH", "", 7.0, "WEEK 6", "TREATMENT", "2012-12-25T14:00", 41], [287, "CDISCPILOT01", "LB", "CDISC002", 105, "ALT", "Alanine Aminotransferase", "CHEMISTRY", "15", "U/L", "6", "32", "15", 15.0, "U/L", 6.0, 32.0, "NORMAL", "", 7.0, "WEEK 6", "TREATMENT", "2012-12-25T14:00", 41], [288, "CDISCPILOT01", "LB", "CDISC002", 106, "AST", "Aspartate Aminotransferase", "CHEMISTRY", "15", "U/L", "9", "34", "15", 15.0, "U/L", 9.0, 34.0, "NORMAL", "", 7.0, "WEEK 6", "TREATMENT", "2012-12-25T14:00", 41], [289, "CDISCPILOT01", "LB", "CDISC002", 107, "BASO", "Basophils", "HEMATOLOGY", "0.04", "10^9/L", "0", "0.2", "0.04", 0.039999999999999994, "10^9/L", 0.0, 0.2, "NORMAL", "", 7.0, "WEEK 6", "TREATMENT", "2012-12-25T14:00", 41], [290, "CDISCPILOT01", "LB", "CDISC002", 108, "BILI", "Bilirubin", "CHEMISTRY", "0.9", "mg/dL", "0.2", "1.2", "15.39", 15.39, "umol/L", 3.0, 21.0, "NORMAL", "", 7.0, "WEEK 6", "TREATMENT", "2012-12-25T14:00", 41], [291, "CDISCPILOT01", "LB", "CDISC002", 109, "UREAN", "Urea Nitrogen", "CHEMISTRY", "24", "mg/dL", "4", "24", "8.568", 8.568, "mmol/L", 1.4, 8.6, "NORMAL", "", 7.0, "WEEK 6", "TREATMENT", "2012-12-25T14:00", 41], [292, "CDISCPILOT01", "LB", "CDISC002", 110, "CA", "Calcium", "CHEMISTRY", "8.6", "mg/dL", "8.4", "10.3", "2.1457", 2.1456999999999997, "mmol/L", 2.1, 2.57, "NORMAL", "", 7.0, "WEEK 6", "TREATMENT", "2012-12-25T14:00", 41], [293, "CDISCPILOT01", "LB", "CDISC002", 111, "CHOL", "Cholesterol", "CHEMISTRY", "170", "mg/dL", "156", "300", "4.3962", 4.396199999999999, "mmol/L", 4.029999999999999, 7.76, "NORMAL", "", 7.0, "WEEK 6", "TREATMENT", "2012-12-25T14:00", 41], [294, "CDISCPILOT01", "LB", "CDISC002", 112, "CK", "Creatine Kinase", "CHEMISTRY", "39", "U/L", "21", "169", "39", 39.0, "U/L", 21.0, 169.0, "NORMAL", "", 7.0, "WEEK 6", "TREATMENT", "2012-12-25T14:00", 41], [295, "CDISCPILOT01", "LB", "CDISC002", 113, "CL", "Chloride", "CHEMISTRY", "103", "mEq/L", "94", "112", "103", 103.0, "mmol/L", 94.0, 112.0, "NORMAL", "", 7.0, "WEEK 6", "TREATMENT", "2012-12-25T14:00", 41], [296, "CDISCPILOT01", "LB", "CDISC002", 114, "CREAT", "Creatinine", "CHEMISTRY", "1.1", "mg/dL", "0.7", "1.4", "97.24", 97.24, "umol/L", 62.0, 124.0, "NORMAL", "", 7.0, "WEEK 6", "TREATMENT", "2012-12-25T14:00", 41], [297, "CDISCPILOT01", "LB", "CDISC002", 115, "EOS", "Eosinophils", "HEMATOLOGY", "0.08", "10^9/L", "0", "0.57", "0.08", 0.08, "10^9/L", 0.0, 0.57, "NORMAL", "", 7.0, "WEEK 6", "TREATMENT", "2012-12-25T14:00", 41], [298, "CDISCPILOT01", "LB", "CDISC002", 116, "GGT", "Gamma Glutamyl Transferase", "CHEMISTRY", "25", "U/L", "5", "50", "25", 25.0, "U/L", 5.0, 50.0, "NORMAL", "", 7.0, "WEEK 6", "TREATMENT", "2012-12-25T14:00", 41], [299, "CDISCPILOT01", "LB", "CDISC002", 117, "GLUC", "Glucose", "CHEMISTRY", "80", "mg/dL", "50", "250", "4.4408", 4.440799999999999, "mmol/L", 2.8, 13.9, "NORMAL", "", 7.0, "WEEK 6", "TREATMENT", "2012-12-25T14:00", 41], [300, "CDISCPILOT01", "LB", "CDISC002", 118, "HCT", "Hematocrit", "HEMATOLOGY", "38.0", "%", "34", "48", "0.38", 0.38, "", 0.33999999999999997, 0.48, "NORMAL", "", 7.0, "WEEK 6", "TREATMENT", "2012-12-25T14:00", 41], [301, "CDISCPILOT01", "LB", "CDISC002", 119, "HGB", "Hemoglobin", "HEMATOLOGY", "12.6", "g/dL", "11.5", "15.8", "7.81956", 7.81956, "mmol/L", 7.14, 9.809999999999999, "NORMAL", "", 7.0, "WEEK 6", "TREATMENT", "2012-12-25T14:00", 41], [302, "CDISCPILOT01", "LB", "CDISC002", 120, "K", "Potassium", "CHEMISTRY", "4.3", "mEq/L", "3.4", "5.4", "4.3", 4.3, "mmol/L", 3.4, 5.3999999999999995, "NORMAL", "", 7.0, "WEEK 6", "TREATMENT", "2012-12-25T14:00", 41], [303, "CDISCPILOT01", "LB", "CDISC002", 121, "LYM", "Lymphocytes", "HEMATOLOGY", "1.40", "10^9/L", "0.8", "3", "1.4", 1.4, "10^9/L", 0.8, 3.0, "NORMAL", "", 7.0, "WEEK 6", "TREATMENT", "2012-12-25T14:00", 41], [304, "CDISCPILOT01", "LB", "CDISC002", 122, "MCH", "Ery. Mean Corpuscular Hemoglobin", "HEMATOLOGY", "31", "pg", "26", "34", "1.92386", 1.92386, "fmol", 1.6, 2.1, "NORMAL", "", 7.0, "WEEK 6", "TREATMENT", "2012-12-25T14:00", 41], [305, "CDISCPILOT01", "LB", "CDISC002", 123, "MCHC", "Ery. Mean Corpuscular HGB Concentration", "HEMATOLOGY", "34", "g/dL", "31", "38", "21.1004", 21.1004, "mmol/L", 19.0, 24.0, "NORMAL", "", 7.0, "WEEK 6", "TREATMENT", "2012-12-25T14:00", 41], [306, "CDISCPILOT01", "LB", "CDISC002", 124, "MCV", "Ery. Mean Corpuscular Volume", "HEMATOLOGY", "93", "fL", "80", "100", "93", 93.0, "fL", 80.0, 100.0, "NORMAL", "", 7.0, "WEEK 6", "TREATMENT", "2012-12-25T14:00", 41], [307, "CDISCPILOT01", "LB", "CDISC002", 125, "MONO", "Monocytes", "HEMATOLOGY", "0.69", "10^9/L", "0.12", "0.92", "0.69", 0.69, "10^9/L", 0.12, 0.92, "NORMAL", "", 7.0, "WEEK 6", "TREATMENT", "2012-12-25T14:00", 41], [308, "CDISCPILOT01", "LB", "CDISC002", 126, "SODIUM", "Sodium", "CHEMISTRY", "135", "mEq/L", "135", "145", "135", 135.0, "mmol/L", 135.0, 145.0, "NORMAL", "", 7.0, "WEEK 6", "TREATMENT", "2012-12-25T14:00", 41], [309, "CDISCPILOT01", "LB", "CDISC002", 127, "PHOS", "Phosphate", "CHEMISTRY", "4.0", "mg/dL", "2.2", "5.1", "1.2916", 1.2916, "mmol/L", 0.71, 1.65, "NORMAL", "", 7.0, "WEEK 6", "TREATMENT", "2012-12-25T14:00", 41], [310, "CDISCPILOT01", "LB", "CDISC002", 128, "PLAT", "Platelets", "HEMATOLOGY", "326", "10^9/L", "130", "394", "326", 326.0, "10^9/L", 130.0, 394.0, "NORMAL", "", 7.0, "WEEK 6", "TREATMENT", "2012-12-25T14:00", 41], [311, "CDISCPILOT01", "LB", "CDISC002", 129, "PROT", "Protein", "CHEMISTRY", "6.2", "g/dL", "6", "8", "62", 62.0, "g/L", 60.0, 80.0, "NORMAL", "", 7.0, "WEEK 6", "TREATMENT", "2012-12-25T14:00", 41], [312, "CDISCPILOT01", "LB", "CDISC002", 130, "RBC", "Erythrocytes", "HEMATOLOGY", "4.10", "10^12/L", "3.9", "5.5", "4.1", 4.1, "10^12/L", 3.9, 5.5, "NORMAL", "", 7.0, "WEEK 6", "TREATMENT", "2012-12-25T14:00", 41], [313, "CDISCPILOT01", "LB", "CDISC002", 131, "URATE", "Urate", "CHEMISTRY", "4.7", "mg/dL", "2.5", "7.5", "279.556", 279.556, "umol/L", 149.0, 446.0, "NORMAL", "", 7.0, "WEEK 6", "TREATMENT", "2012-12-25T14:00", 41], [314, "CDISCPILOT01", "LB", "CDISC002", 132, "WBC", "Leukocytes", "HEMATOLOGY", "6.26", "10^9/L", "3.8", "10.7", "6.26", 6.26, "10^9/L", 3.8, 10.7, "NORMAL", "", 7.0, "WEEK 6", "TREATMENT", "2012-12-25T14:00", 41], [315, "CDISCPILOT01", "LB", "CDISC002", 133, "ALB", "Albumin", "CHEMISTRY", "3.3", "g/dL", "3.5", "4.6", "33", 33.0, "g/L", 35.0, 46.0, "LOW", "", 8.0, "WEEK 8", "TREATMENT", "2013-01-08T12:13", 55], [316, "CDISCPILOT01", "LB", "CDISC002", 134, "ALP", "Alkaline Phosphatase", "CHEMISTRY", "183", "U/L", "35", "115", "183", 183.0, "U/L", 35.0, 115.0, "HIGH", "", 8.0, "WEEK 8", "TREATMENT", "2013-01-08T12:13", 55], [317, "CDISCPILOT01", "LB", "CDISC002", 135, "ALT", "Alanine Aminotransferase", "CHEMISTRY", "21", "U/L", "6", "32", "21", 21.0, "U/L", 6.0, 32.0, "NORMAL", "", 8.0, "WEEK 8", "TREATMENT", "2013-01-08T12:13", 55], [318, "CDISCPILOT01", "LB", "CDISC002", 136, "AST", "Aspartate Aminotransferase", "CHEMISTRY", "17", "U/L", "9", "34", "17", 17.0, "U/L", 9.0, 34.0, "NORMAL", "", 8.0, "WEEK 8", "TREATMENT", "2013-01-08T12:13", 55], [319, "CDISCPILOT01", "LB", "CDISC002", 137, "BASO", "Basophils", "HEMATOLOGY", "0.02", "10^9/L", "0", "0.2", "0.02", 0.02, "10^9/L", 0.0, 0.2, "NORMAL", "", 8.0, "WEEK 8", "TREATMENT", "2013-01-08T12:13", 55], [320, "CDISCPILOT01", "LB", "CDISC002", 138, "BILI", "Bilirubin", "CHEMISTRY", "1.4", "mg/dL", "0.2", "1.2", "23.94", 23.94, "umol/L", 3.0, 21.0, "HIGH", "", 8.0, "WEEK 8", "TREATMENT", "2013-01-08T12:13", 55], [321, "CDISCPILOT01", "LB", "CDISC002", 139, "UREAN", "Urea Nitrogen", "CHEMISTRY", "24", "mg/dL", "4", "24", "8.568", 8.568, "mmol/L", 1.4, 8.6, "NORMAL", "", 8.0, "WEEK 8", "TREATMENT", "2013-01-08T12:13", 55], [322, "CDISCPILOT01", "LB", "CDISC002", 140, "CA", "Calcium", "CHEMISTRY", "9.0", "mg/dL", "8.4", "10.3", "2.2455", 2.2455, "mmol/L", 2.1, 2.57, "NORMAL", "", 8.0, "WEEK 8", "TREATMENT", "2013-01-08T12:13", 55], [323, "CDISCPILOT01", "LB", "CDISC002", 141, "CHOL", "Cholesterol", "CHEMISTRY", "162", "mg/dL", "156", "300", "4.18932", 4.1893199999999995, "mmol/L", 4.029999999999999, 7.76, "NORMAL", "", 8.0, "WEEK 8", "TREATMENT", "2013-01-08T12:13", 55], [324, "CDISCPILOT01", "LB", "CDISC002", 142, "CK", "Creatine Kinase", "CHEMISTRY", "27", "U/L", "21", "169", "27", 27.0, "U/L", 21.0, 169.0, "NORMAL", "", 8.0, "WEEK 8", "TREATMENT", "2013-01-08T12:13", 55], [325, "CDISCPILOT01", "LB", "CDISC002", 143, "CL", "Chloride", "CHEMISTRY", "101", "mEq/L", "94", "112", "101", 101.0, "mmol/L", 94.0, 112.0, "NORMAL", "", 8.0, "WEEK 8", "TREATMENT", "2013-01-08T12:13", 55], [326, "CDISCPILOT01", "LB", "CDISC002", 144, "CREAT", "Creatinine", "CHEMISTRY", "1.3", "mg/dL", "0.7", "1.4", "114.92", 114.92, "umol/L", 62.0, 124.0, "NORMAL", "", 8.0, "WEEK 8", "TREATMENT", "2013-01-08T12:13", 55], [327, "CDISCPILOT01", "LB", "CDISC002", 145, "EOS", "Eosinophils", "HEMATOLOGY", "0.05", "10^9/L", "0", "0.57", "0.05", 0.05, "10^9/L", 0.0, 0.57, "NORMAL", "", 8.0, "WEEK 8", "TREATMENT", "2013-01-08T12:13", 55], [328, "CDISCPILOT01", "LB", "CDISC002", 146, "GGT", "Gamma Glutamyl Transferase", "CHEMISTRY", "65", "U/L", "5", "50", "65", 65.0, "U/L", 5.0, 50.0, "HIGH", "", 8.0, "WEEK 8", "TREATMENT", "2013-01-08T12:13", 55], [329, "CDISCPILOT01", "LB", "CDISC002", 147, "GLUC", "Glucose", "CHEMISTRY", "100", "mg/dL", "50", "250", "5.551", 5.550999999999999, "mmol/L", 2.8, 13.9, "NORMAL", "", 8.0, "WEEK 8", "TREATMENT", "2013-01-08T12:13", 55], [330, "CDISCPILOT01", "LB", "CDISC002", 148, "HCT", "Hematocrit", "HEMATOLOGY", "42.0", "%", "34", "48", "0.42", 0.42, "", 0.33999999999999997, 0.48, "NORMAL", "", 8.0, "WEEK 8", "TREATMENT", "2013-01-08T12:13", 55], [331, "CDISCPILOT01", "LB", "CDISC002", 149, "HGB", "Hemoglobin", "HEMATOLOGY", "13.9", "g/dL", "11.5", "15.8", "8.62634", 8.62634, "mmol/L", 7.14, 9.809999999999999, "NORMAL", "", 8.0, "WEEK 8", "TREATMENT", "2013-01-08T12:13", 55], [332, "CDISCPILOT01", "LB", "CDISC002", 150, "K", "Potassium", "CHEMISTRY", "3.6", "mEq/L", "3.4", "5.4", "3.6", 3.6, "mmol/L", 3.4, 5.3999999999999995, "NORMAL", "", 8.0, "WEEK 8", "TREATMENT", "2013-01-08T12:13", 55], [333, "CDISCPILOT01", "LB", "CDISC002", 151, "LYM", "Lymphocytes", "HEMATOLOGY", "0.95", "10^9/L", "0.8", "3", "0.95", 0.95, "10^9/L", 0.8, 3.0, "NORMAL", "", 8.0, "WEEK 8", "TREATMENT", "2013-01-08T12:13", 55], [334, "CDISCPILOT01", "LB", "CDISC002", 152, "MCH", "Ery. Mean Corpuscular Hemoglobin", "HEMATOLOGY", "31", "pg", "26", "34", "1.92386", 1.92386, "fmol", 1.6, 2.1, "NORMAL", "", 8.0, "WEEK 8", "TREATMENT", "2013-01-08T12:13", 55], [335, "CDISCPILOT01", "LB", "CDISC002", 153, "MCHC", "Ery. Mean Corpuscular HGB Concentration", "HEMATOLOGY", "33", "g/dL", "31", "38", "20.4798", 20.4798, "mmol/L", 19.0, 24.0, "NORMAL", "", 8.0, "WEEK 8", "TREATMENT", "2013-01-08T12:13", 55], [336, "CDISCPILOT01", "LB", "CDISC002", 154, "MCV", "Ery. Mean Corpuscular Volume", "HEMATOLOGY", "93", "fL", "80", "100", "93", 93.0, "fL", 80.0, 100.0, "NORMAL", "", 8.0, "WEEK 8", "TREATMENT", "2013-01-08T12:13", 55], [337, "CDISCPILOT01", "LB", "CDISC002", 155, "MONO", "Monocytes", "HEMATOLOGY", "0.80", "10^9/L", "0.12", "0.92", "0.8", 0.8, "10^9/L", 0.12, 0.92, "NORMAL", "", 8.0, "WEEK 8", "TREATMENT", "2013-01-08T12:13", 55], [338, "CDISCPILOT01", "LB", "CDISC002", 156, "SODIUM", "Sodium", "CHEMISTRY", "142", "mEq/L", "135", "145", "142", 142.0, "mmol/L", 135.0, 145.0, "NORMAL", "", 8.0, "WEEK 8", "TREATMENT", "2013-01-08T12:13", 55], [339, "CDISCPILOT01", "LB", "CDISC002", 157, "PHOS", "Phosphate", "CHEMISTRY", "3.3", "mg/dL", "2.2", "5.1", "1.06557", 1.06557, "mmol/L", 0.71, 1.65, "NORMAL", "", 8.0, "WEEK 8", "TREATMENT", "2013-01-08T12:13", 55], [340, "CDISCPILOT01", "LB", "CDISC002", 158, "PLAT", "Platelets", "HEMATOLOGY", "369", "10^9/L", "130", "394", "369", 369.0, "10^9/L", 130.0, 394.0, "NORMAL", "", 8.0, "WEEK 8", "TREATMENT", "2013-01-08T12:13", 55], [341, "CDISCPILOT01", "LB", "CDISC002", 159, "PROT", "Protein", "CHEMISTRY", "7.1", "g/dL", "6", "8", "71", 71.0, "g/L", 60.0, 80.0, "NORMAL", "", 8.0, "WEEK 8", "TREATMENT", "2013-01-08T12:13", 55], [342, "CDISCPILOT01", "LB", "CDISC002", 160, "RBC", "Erythrocytes", "HEMATOLOGY", "4.50", "10^12/L", "3.9", "5.5", "4.5", 4.5, "10^12/L", 3.9, 5.5, "NORMAL", "", 8.0, "WEEK 8", "TREATMENT", "2013-01-08T12:13", 55], [343, "CDISCPILOT01", "LB", "CDISC002", 161, "URATE", "Urate", "CHEMISTRY", "4.0", "mg/dL", "2.5", "7.5", "237.92", 237.92, "umol/L", 149.0, 446.0, "NORMAL", "", 8.0, "WEEK 8", "TREATMENT", "2013-01-08T12:13", 55], [344, "CDISCPILOT01", "LB", "CDISC002", 162, "WBC", "Leukocytes", "HEMATOLOGY", "8.29", "10^9/L", "3.8", "10.7", "8.29", 8.29, "10^9/L", 3.8, 10.7, "NORMAL", "", 8.0, "WEEK 8", "TREATMENT", "2013-01-08T12:13", 55], [345, "CDISCPILOT01", "LB", "CDISC003", 1, "ALB", "Albumin", "CHEMISTRY", "4.3", "g/dL", "3.3", "4.9", "43", 43.0, "g/L", 33.0, 49.0, "NORMAL", "Y", 1.0, "SCREENING 1", "SCREENING", "2013-08-20T12:27", -9], [346, "CDISCPILOT01", "LB", "CDISC003", 2, "ALP", "Alkaline Phosphatase", "CHEMISTRY", "67", "U/L", "35", "115", "67", 67.0, "U/L", 35.0, 115.0, "NORMAL", "Y", 1.0, "SCREENING 1", "SCREENING", "2013-08-20T12:27", -9], [347, "CDISCPILOT01", "LB", "CDISC003", 3, "ALT", "Alanine Aminotransferase", "CHEMISTRY", "62", "U/L", "6", "43", "62", 62.0, "U/L", 6.0, 43.0, "HIGH", "Y", 1.0, "SCREENING 1", "SCREENING", "2013-08-20T12:27", -9], [348, "CDISCPILOT01", "LB", "CDISC003", 4, "AST", "Aspartate Aminotransferase", "CHEMISTRY", "52", "U/L", "11", "36", "52", 52.0, "U/L", 11.0, 36.0, "HIGH", "Y", 1.0, "SCREENING 1", "SCREENING", "2013-08-20T12:27", -9], [349, "CDISCPILOT01", "LB", "CDISC003", 5, "BASO", "Basophils", "HEMATOLOGY", "0.07", "10^9/L", "0", "0.2", "0.07", 0.07, "10^9/L", 0.0, 0.2, "NORMAL", "Y", 1.0, "SCREENING 1", "SCREENING", "2013-08-20T12:27", -9], [350, "CDISCPILOT01", "LB", "CDISC003", 6, "BILI", "Bilirubin", "CHEMISTRY", "0.6", "mg/dL", "0.2", "1.2", "10.26", 10.26, "umol/L", 3.0, 21.0, "NORMAL", "Y", 1.0, "SCREENING 1", "SCREENING", "2013-08-20T12:27", -9], [351, "CDISCPILOT01", "LB", "CDISC003", 7, "UREAN", "Urea Nitrogen", "CHEMISTRY", "13", "mg/dL", "4", "24", "4.641", 4.641, "mmol/L", 1.4, 8.6, "NORMAL", "Y", 1.0, "SCREENING 1", "SCREENING", "2013-08-20T12:27", -9], [352, "CDISCPILOT01", "LB", "CDISC003", 8, "CA", "Calcium", "CHEMISTRY", "9.6", "mg/dL", "8.4", "10.3", "2.3952", 2.3952, "mmol/L", 2.1, 2.57, "NORMAL", "Y", 1.0, "SCREENING 1", "SCREENING", "2013-08-20T12:27", -9], [353, "CDISCPILOT01", "LB", "CDISC003", 9, "CHOL", "Cholesterol", "CHEMISTRY", "255", "mg/dL", "149", "286", "6.5943", 6.5943, "mmol/L", 3.85, 7.4, "NORMAL", "Y", 1.0, "SCREENING 1", "SCREENING", "2013-08-20T12:27", -9], [354, "CDISCPILOT01", "LB", "CDISC003", 10, "CK", "Creatine Kinase", "CHEMISTRY", "444", "U/L", "22", "198", "444", 444.0, "U/L", 22.0, 198.0, "HIGH", "Y", 1.0, "SCREENING 1", "SCREENING", "2013-08-20T12:27", -9], [355, "CDISCPILOT01", "LB", "CDISC003", 11, "CL", "Chloride", "CHEMISTRY", "111", "mEq/L", "94", "112", "111", 111.0, "mmol/L", 94.0, 112.0, "NORMAL", "Y", 1.0, "SCREENING 1", "SCREENING", "2013-08-20T12:27", -9], [356, "CDISCPILOT01", "LB", "CDISC003", 12, "COLOR", "Color", "URINALYSIS", "NORMAL", "", "", "", "NORMAL", null, "", null, null, "NORMAL", "Y", 1.0, "SCREENING 1", "SCREENING", "2013-08-20T12:27", -9], [357, "CDISCPILOT01", "LB", "CDISC003", 13, "CREAT", "Creatinine", "CHEMISTRY", "1.3", "mg/dL", "0.8", "1.6", "114.92", 114.92, "umol/L", 71.0, 141.0, "NORMAL", "Y", 1.0, "SCREENING 1", "SCREENING", "2013-08-20T12:27", -9], [358, "CDISCPILOT01", "LB", "CDISC003", 14, "EOS", "Eosinophils", "HEMATOLOGY", "0.30", "10^9/L", "0", "0.57", "0.3", 0.3, "10^9/L", 0.0, 0.57, "NORMAL", "Y", 1.0, "SCREENING 1", "SCREENING", "2013-08-20T12:27", -9], [359, "CDISCPILOT01", "LB", "CDISC003", 15, "GGT", "Gamma Glutamyl Transferase", "CHEMISTRY", "17", "U/L", "10", "50", "17", 17.0, "U/L", 10.0, 50.0, "NORMAL", "Y", 1.0, "SCREENING 1", "SCREENING", "2013-08-20T12:27", -9], [360, "CDISCPILOT01", "LB", "CDISC003", 16, "GLUC", "Glucose", "CHEMISTRY", "85", "mg/dL", "50", "250", "4.71835", 4.71835, "mmol/L", 2.8, 13.9, "NORMAL", "Y", 1.0, "SCREENING 1", "SCREENING", "2013-08-20T12:27", -9], [361, "CDISCPILOT01", "LB", "CDISC003", 17, "HCT", "Hematocrit", "HEMATOLOGY", "44.0", "%", "37", "51", "0.44", 0.44, "", 0.37, 0.51, "NORMAL", "Y", 1.0, "SCREENING 1", "SCREENING", "2013-08-20T12:27", -9], [362, "CDISCPILOT01", "LB", "CDISC003", 18, "HGB", "Hemoglobin", "HEMATOLOGY", "14.6", "g/dL", "12.5", "17", "9.06076", 9.060759999999998, "mmol/L", 7.76, 10.55, "NORMAL", "Y", 1.0, "SCREENING 1", "SCREENING", "2013-08-20T12:27", -9], [363, "CDISCPILOT01", "LB", "CDISC003", 19, "K", "Potassium", "CHEMISTRY", "4.3", "mEq/L", "3.4", "5.4", "4.3", 4.3, "mmol/L", 3.4, 5.3999999999999995, "NORMAL", "Y", 1.0, "SCREENING 1", "SCREENING", "2013-08-20T12:27", -9], [364, "CDISCPILOT01", "LB", "CDISC003", 20, "KETONES", "Ketones", "URINALYSIS", "0", "", "", "", "0", 0.0, "", null, null, "NORMAL", "Y", 1.0, "SCREENING 1", "SCREENING", "2013-08-20T12:27", -9], [365, "CDISCPILOT01", "LB", "CDISC003", 21, "LYM", "Lymphocytes", "HEMATOLOGY", "1.48", "10^9/L", "0.8", "3", "1.48", 1.48, "10^9/L", 0.8, 3.0, "NORMAL", "Y", 1.0, "SCREENING 1", "SCREENING", "2013-08-20T12:27", -9], [366, "CDISCPILOT01", "LB", "CDISC003", 22, "MCH", "Ery. Mean Corpuscular Hemoglobin", "HEMATOLOGY", "31", "pg", "26", "34", "1.92386", 1.92386, "fmol", 1.6, 2.1, "NORMAL", "Y", 1.0, "SCREENING 1", "SCREENING", "2013-08-20T12:27", -9], [367, "CDISCPILOT01", "LB", "CDISC003", 23, "MCHC", "Ery. Mean Corpuscular HGB Concentration", "HEMATOLOGY", "33", "g/dL", "31", "38", "20.4798", 20.4798, "mmol/L", 19.0, 24.0, "NORMAL", "Y", 1.0, "SCREENING 1", "SCREENING", "2013-08-20T12:27", -9], [368, "CDISCPILOT01", "LB", "CDISC003", 24, "MCV", "Ery. Mean Corpuscular Volume", "HEMATOLOGY", "92", "fL", "80", "100", "92", 92.0, "fL", 80.0, 100.0, "NORMAL", "Y", 1.0, "SCREENING 1", "SCREENING", "2013-08-20T12:27", -9], [369, "CDISCPILOT01", "LB", "CDISC003", 25, "MONO", "Monocytes", "HEMATOLOGY", "0.45", "10^9/L", "0.12", "0.92", "0.45", 0.45, "10^9/L", 0.12, 0.92, "NORMAL", "Y", 1.0, "SCREENING 1", "SCREENING", "2013-08-20T12:27", -9], [370, "CDISCPILOT01", "LB", "CDISC003", 26, "SODIUM", "Sodium", "CHEMISTRY", "140", "mEq/L", "135", "145", "140", 140.0, "mmol/L", 135.0, 145.0, "NORMAL", "Y", 1.0, "SCREENING 1", "SCREENING", "2013-08-20T12:27", -9], [371, "CDISCPILOT01", "LB", "CDISC003", 27, "PH", "pH", "URINALYSIS", "5", "", "5", "8", "5", 5.0, "", 5.0, 8.0, "NORMAL", "Y", 1.0, "SCREENING 1", "SCREENING", "2013-08-20T12:27", -9], [372, "CDISCPILOT01", "LB", "CDISC003", 28, "PHOS", "Phosphate", "CHEMISTRY", "3.6", "mg/dL", "2.2", "5.1", "1.16244", 1.16244, "mmol/L", 0.71, 1.65, "NORMAL", "Y", 1.0, "SCREENING 1", "SCREENING", "2013-08-20T12:27", -9], [373, "CDISCPILOT01", "LB", "CDISC003", 29, "PLAT", "Platelets", "HEMATOLOGY", "220", "10^9/L", "130", "394", "220", 220.0, "10^9/L", 130.0, 394.0, "NORMAL", "Y", 1.0, "SCREENING 1", "SCREENING", "2013-08-20T12:27", -9], [374, "CDISCPILOT01", "LB", "CDISC003", 30, "PROT", "Protein", "CHEMISTRY", "7.9", "g/dL", "6", "8", "79", 79.0, "g/L", 60.0, 80.0, "NORMAL", "Y", 1.0, "SCREENING 1", "SCREENING", "2013-08-20T12:27", -9], [375, "CDISCPILOT01", "LB", "CDISC003", 31, "RBC", "Erythrocytes", "HEMATOLOGY", "4.80", "10^12/L", "4", "5.8", "4.8", 4.8, "10^12/L", 4.0, 5.8, "NORMAL", "Y", 1.0, "SCREENING 1", "SCREENING", "2013-08-20T12:27", -9], [376, "CDISCPILOT01", "LB", "CDISC003", 32, "SPGRAV", "Specific Gravity", "URINALYSIS", "1.021", "", "1.006", "1.03", "1.021", 1.021, "", 1.006, 1.03, "NORMAL", "Y", 1.0, "SCREENING 1", "SCREENING", "2013-08-20T12:27", -9], [377, "CDISCPILOT01", "LB", "CDISC003", 33, "TSH", "Thyrotropin", "OTHER", "1.89", "mIU/L", ".32", "5", "1.89", 1.89, "mU/L", 0.32, 5.0, "NORMAL", "Y", 1.0, "SCREENING 1", "SCREENING", "2013-08-20T12:27", -9], [378, "CDISCPILOT01", "LB", "CDISC003", 34, "URATE", "Urate", "CHEMISTRY", "3.6", "mg/dL", "2.5", "7.5", "214.128", 214.128, "umol/L", 149.0, 446.0, "NORMAL", "Y", 1.0, "SCREENING 1", "SCREENING", "2013-08-20T12:27", -9], [379, "CDISCPILOT01", "LB", "CDISC003", 35, "UROBIL", "Urobilinogen", "URINALYSIS", "0", "", "", "", "0", 0.0, "", null, null, "NORMAL", "Y", 1.0, "SCREENING 1", "SCREENING", "2013-08-20T12:27", -9], [380, "CDISCPILOT01", "LB", "CDISC003", 36, "VITB12", "Vitamin B12", "OTHER", "714", "ng/L", "200", "900", "526.7892", 526.7892, "pmol/L", 148.0, 664.0, "NORMAL", "Y", 1.0, "SCREENING 1", "SCREENING", "2013-08-20T12:27", -9], [381, "CDISCPILOT01", "LB", "CDISC003", 37, "WBC", "Leukocytes", "HEMATOLOGY", "4.87", "10^9/L", "3.8", "10.7", "4.87", 4.87, "10^9/L", 3.8, 10.7, "NORMAL", "Y", 1.0, "SCREENING 1", "SCREENING", "2013-08-20T12:27", -9], [382, "CDISCPILOT01", "LB", "CDISC003", 38, "ALB", "Albumin", "CHEMISTRY", "3.6", "g/dL", "3.3", "4.9", "36", 36.0, "g/L", 33.0, 49.0, "NORMAL", "", 4.0, "WEEK 2", "TREATMENT", "2013-09-15T12:44", 18], [383, "CDISCPILOT01", "LB", "CDISC003", 39, "ALP", "Alkaline Phosphatase", "CHEMISTRY", "61", "U/L", "35", "115", "61", 61.0, "U/L", 35.0, 115.0, "NORMAL", "", 4.0, "WEEK 2", "TREATMENT", "2013-09-15T12:44", 18], [384, "CDISCPILOT01", "LB", "CDISC003", 40, "ALT", "Alanine Aminotransferase", "CHEMISTRY", "31", "U/L", "6", "43", "31", 31.0, "U/L", 6.0, 43.0, "NORMAL", "", 4.0, "WEEK 2", "TREATMENT", "2013-09-15T12:44", 18], [385, "CDISCPILOT01", "LB", "CDISC003", 41, "AST", "Aspartate Aminotransferase", "CHEMISTRY", "30", "U/L", "11", "36", "30", 30.0, "U/L", 11.0, 36.0, "NORMAL", "", 4.0, "WEEK 2", "TREATMENT", "2013-09-15T12:44", 18], [386, "CDISCPILOT01", "LB", "CDISC003", 42, "BASO", "Basophils", "HEMATOLOGY", "0.05", "10^9/L", "0", "0.2", "0.05", 0.05, "10^9/L", 0.0, 0.2, "NORMAL", "", 4.0, "WEEK 2", "TREATMENT", "2013-09-15T12:44", 18], [387, "CDISCPILOT01", "LB", "CDISC003", 43, "BILI", "Bilirubin", "CHEMISTRY", "0.4", "mg/dL", "0.2", "1.2", "6.84", 6.84, "umol/L", 3.0, 21.0, "NORMAL", "", 4.0, "WEEK 2", "TREATMENT", "2013-09-15T12:44", 18], [388, "CDISCPILOT01", "LB", "CDISC003", 44, "UREAN", "Urea Nitrogen", "CHEMISTRY", "11", "mg/dL", "4", "24", "3.927", 3.927, "mmol/L", 1.4, 8.6, "NORMAL", "", 4.0, "WEEK 2", "TREATMENT", "2013-09-15T12:44", 18], [389, "CDISCPILOT01", "LB", "CDISC003", 45, "CA", "Calcium", "CHEMISTRY", "8.7", "mg/dL", "8.4", "10.3", "2.17065", 2.1706499999999997, "mmol/L", 2.1, 2.57, "NORMAL", "", 4.0, "WEEK 2", "TREATMENT", "2013-09-15T12:44", 18], [390, "CDISCPILOT01", "LB", "CDISC003", 46, "CHOL", "Cholesterol", "CHEMISTRY", "225", "mg/dL", "149", "286", "5.8185", 5.818499999999999, "mmol/L", 3.85, 7.4, "NORMAL", "", 4.0, "WEEK 2", "TREATMENT", "2013-09-15T12:44", 18], [391, "CDISCPILOT01", "LB", "CDISC003", 47, "CK", "Creatine Kinase", "CHEMISTRY", "100", "U/L", "22", "198", "100", 100.0, "U/L", 22.0, 198.0, "NORMAL", "", 4.0, "WEEK 2", "TREATMENT", "2013-09-15T12:44", 18], [392, "CDISCPILOT01", "LB", "CDISC003", 48, "CL", "Chloride", "CHEMISTRY", "108", "mEq/L", "94", "112", "108", 108.0, "mmol/L", 94.0, 112.0, "NORMAL", "", 4.0, "WEEK 2", "TREATMENT", "2013-09-15T12:44", 18], [393, "CDISCPILOT01", "LB", "CDISC003", 49, "COLOR", "Color", "URINALYSIS", "NORMAL", "", "", "", "NORMAL", null, "", null, null, "NORMAL", "", 4.0, "WEEK 2", "TREATMENT", "2013-09-15T12:44", 18], [394, "CDISCPILOT01", "LB", "CDISC003", 50, "CREAT", "Creatinine", "CHEMISTRY", "1.1", "mg/dL", "0.8", "1.6", "97.24", 97.24, "umol/L", 71.0, 141.0, "NORMAL", "", 4.0, "WEEK 2", "TREATMENT", "2013-09-15T12:44", 18], [395, "CDISCPILOT01", "LB", "CDISC003", 51, "EOS", "Eosinophils", "HEMATOLOGY", "0.19", "10^9/L", "0", "0.57", "0.19", 0.19, "10^9/L", 0.0, 0.57, "NORMAL", "", 4.0, "WEEK 2", "TREATMENT", "2013-09-15T12:44", 18], [396, "CDISCPILOT01", "LB", "CDISC003", 52, "GGT", "Gamma Glutamyl Transferase", "CHEMISTRY", "12", "U/L", "10", "50", "12", 12.0, "U/L", 10.0, 50.0, "NORMAL", "", 4.0, "WEEK 2", "TREATMENT", "2013-09-15T12:44", 18], [397, "CDISCPILOT01", "LB", "CDISC003", 53, "GLUC", "Glucose", "CHEMISTRY", "88", "mg/dL", "50", "250", "4.88488", 4.88488, "mmol/L", 2.8, 13.9, "NORMAL", "", 4.0, "WEEK 2", "TREATMENT", "2013-09-15T12:44", 18], [398, "CDISCPILOT01", "LB", "CDISC003", 54, "HCT", "Hematocrit", "HEMATOLOGY", "39.0", "%", "37", "51", "0.39", 0.39, "", 0.37, 0.51, "NORMAL", "", 4.0, "WEEK 2", "TREATMENT", "2013-09-15T12:44", 18], [399, "CDISCPILOT01", "LB", "CDISC003", 55, "HGB", "Hemoglobin", "HEMATOLOGY", "13.2", "g/dL", "12.5", "17", "8.19192", 8.19192, "mmol/L", 7.76, 10.55, "NORMAL", "", 4.0, "WEEK 2", "TREATMENT", "2013-09-15T12:44", 18], [400, "CDISCPILOT01", "LB", "CDISC003", 56, "K", "Potassium", "CHEMISTRY", "3.8", "mEq/L", "3.4", "5.4", "3.8", 3.8, "mmol/L", 3.4, 5.3999999999999995, "NORMAL", "", 4.0, "WEEK 2", "TREATMENT", "2013-09-15T12:44", 18], [401, "CDISCPILOT01", "LB", "CDISC003", 57, "KETONES", "Ketones", "URINALYSIS", "0", "", "", "", "0", 0.0, "", null, null, "NORMAL", "", 4.0, "WEEK 2", "TREATMENT", "2013-09-15T12:44", 18], [402, "CDISCPILOT01", "LB", "CDISC003", 58, "LYM", "Lymphocytes", "HEMATOLOGY", "1.31", "10^9/L", "0.8", "3", "1.31", 1.31, "10^9/L", 0.8, 3.0, "NORMAL", "", 4.0, "WEEK 2", "TREATMENT", "2013-09-15T12:44", 18], [403, "CDISCPILOT01", "LB", "CDISC003", 59, "MCH", "Ery. Mean Corpuscular Hemoglobin", "HEMATOLOGY", "32", "pg", "26", "34", "1.98592", 1.98592, "fmol", 1.6, 2.1, "NORMAL", "", 4.0, "WEEK 2", "TREATMENT", "2013-09-15T12:44", 18], [404, "CDISCPILOT01", "LB", "CDISC003", 60, "MCHC", "Ery. Mean Corpuscular HGB Concentration", "HEMATOLOGY", "34", "g/dL", "31", "38", "21.1004", 21.1004, "mmol/L", 19.0, 24.0, "NORMAL", "", 4.0, "WEEK 2", "TREATMENT", "2013-09-15T12:44", 18], [405, "CDISCPILOT01", "LB", "CDISC003", 61, "MCV", "Ery. Mean Corpuscular Volume", "HEMATOLOGY", "93", "fL", "80", "100", "93", 93.0, "fL", 80.0, 100.0, "NORMAL", "", 4.0, "WEEK 2", "TREATMENT", "2013-09-15T12:44", 18], [406, "CDISCPILOT01", "LB", "CDISC003", 62, "MONO", "Monocytes", "HEMATOLOGY", "0.32", "10^9/L", "0.12", "0.92", "0.32", 0.32, "10^9/L", 0.12, 0.92, "NORMAL", "", 4.0, "WEEK 2", "TREATMENT", "2013-09-15T12:44", 18], [407, "CDISCPILOT01", "LB", "CDISC003", 63, "SODIUM", "Sodium", "CHEMISTRY", "140", "mEq/L", "135", "145", "140", 140.0, "mmol/L", 135.0, 145.0, "NORMAL", "", 4.0, "WEEK 2", "TREATMENT", "2013-09-15T12:44", 18], [408, "CDISCPILOT01", "LB", "CDISC003", 64, "PH", "pH", "URINALYSIS", "5", "", "5", "8", "5", 5.0, "", 5.0, 8.0, "NORMAL", "", 4.0, "WEEK 2", "TREATMENT", "2013-09-15T12:44", 18], [409, "CDISCPILOT01", "LB", "CDISC003", 65, "PHOS", "Phosphate", "CHEMISTRY", "2.8", "mg/dL", "2.2", "5.1", "0.90412", 0.90412, "mmol/L", 0.71, 1.65, "NORMAL", "", 4.0, "WEEK 2", "TREATMENT", "2013-09-15T12:44", 18], [410, "CDISCPILOT01", "LB", "CDISC003", 66, "PLAT", "Platelets", "HEMATOLOGY", "230", "10^9/L", "130", "394", "230", 230.0, "10^9/L", 130.0, 394.0, "NORMAL", "", 4.0, "WEEK 2", "TREATMENT", "2013-09-15T12:44", 18], [411, "CDISCPILOT01", "LB", "CDISC003", 67, "PROT", "Protein", "CHEMISTRY", "6.8", "g/dL", "6", "8", "68", 68.0, "g/L", 60.0, 80.0, "NORMAL", "", 4.0, "WEEK 2", "TREATMENT", "2013-09-15T12:44", 18], [412, "CDISCPILOT01", "LB", "CDISC003", 68, "RBC", "Erythrocytes", "HEMATOLOGY", "4.20", "10^12/L", "4", "5.8", "4.2", 4.199999999999999, "10^12/L", 4.0, 5.8, "NORMAL", "", 4.0, "WEEK 2", "TREATMENT", "2013-09-15T12:44", 18], [413, "CDISCPILOT01", "LB", "CDISC003", 69, "SPGRAV", "Specific Gravity", "URINALYSIS", "1.021", "", "1.006", "1.03", "1.021", 1.021, "", 1.006, 1.03, "NORMAL", "", 4.0, "WEEK 2", "TREATMENT", "2013-09-15T12:44", 18], [414, "CDISCPILOT01", "LB", "CDISC003", 70, "URATE", "Urate", "CHEMISTRY", "3.6", "mg/dL", "2.5", "7.5", "214.128", 214.128, "umol/L", 149.0, 446.0, "NORMAL", "", 4.0, "WEEK 2", "TREATMENT", "2013-09-15T12:44", 18], [415, "CDISCPILOT01", "LB", "CDISC003", 71, "UROBIL", "Urobilinogen", "URINALYSIS", "0", "", "", "", "0", 0.0, "", null, null, "NORMAL", "", 4.0, "WEEK 2", "TREATMENT", "2013-09-15T12:44", 18], [416, "CDISCPILOT01", "LB", "CDISC003", 72, "WBC", "Leukocytes", "HEMATOLOGY", "4.59", "10^9/L", "3.8", "10.7", "4.59", 4.59, "10^9/L", 3.8, 10.7, "NORMAL", "", 4.0, "WEEK 2", "TREATMENT", "2013-09-15T12:44", 18], [417, "CDISCPILOT01", "LB", "CDISC003", 73, "ALB", "Albumin", "CHEMISTRY", "4.0", "g/dL", "3.3", "4.9", "40", 40.0, "g/L", 33.0, 49.0, "NORMAL", "", 5.0, "WEEK 4", "TREATMENT", "2013-09-24T08:16", 27], [418, "CDISCPILOT01", "LB", "CDISC003", 74, "ALP", "Alkaline Phosphatase", "CHEMISTRY", "75", "U/L", "35", "115", "75", 75.0, "U/L", 35.0, 115.0, "NORMAL", "", 5.0, "WEEK 4", "TREATMENT", "2013-09-24T08:16", 27], [419, "CDISCPILOT01", "LB", "CDISC003", 75, "ALT", "Alanine Aminotransferase", "CHEMISTRY", "34", "U/L", "6", "43", "34", 34.0, "U/L", 6.0, 43.0, "NORMAL", "", 5.0, "WEEK 4", "TREATMENT", "2013-09-24T08:16", 27], [420, "CDISCPILOT01", "LB", "CDISC003", 76, "AST", "Aspartate Aminotransferase", "CHEMISTRY", "30", "U/L", "11", "36", "30", 30.0, "U/L", 11.0, 36.0, "NORMAL", "", 5.0, "WEEK 4", "TREATMENT", "2013-09-24T08:16", 27], [421, "CDISCPILOT01", "LB", "CDISC003", 77, "BASO", "Basophils", "HEMATOLOGY", "0.06", "10^9/L", "0", "0.2", "0.06", 0.06, "10^9/L", 0.0, 0.2, "NORMAL", "", 5.0, "WEEK 4", "TREATMENT", "2013-09-24T08:16", 27], [422, "CDISCPILOT01", "LB", "CDISC003", 78, "BILI", "Bilirubin", "CHEMISTRY", "0.5", "mg/dL", "0.2", "1.2", "8.55", 8.549999999999999, "umol/L", 3.0, 21.0, "NORMAL", "", 5.0, "WEEK 4", "TREATMENT", "2013-09-24T08:16", 27], [423, "CDISCPILOT01", "LB", "CDISC003", 79, "UREAN", "Urea Nitrogen", "CHEMISTRY", "12", "mg/dL", "4", "24", "4.284", 4.284, "mmol/L", 1.4, 8.6, "NORMAL", "", 5.0, "WEEK 4", "TREATMENT", "2013-09-24T08:16", 27], [424, "CDISCPILOT01", "LB", "CDISC003", 80, "CA", "Calcium", "CHEMISTRY", "8.7", "mg/dL", "8.4", "10.3", "2.17065", 2.1706499999999997, "mmol/L", 2.1, 2.57, "NORMAL", "", 5.0, "WEEK 4", "TREATMENT", "2013-09-24T08:16", 27], [425, "CDISCPILOT01", "LB", "CDISC003", 81, "CHOL", "Cholesterol", "CHEMISTRY", "239", "mg/dL", "149", "286", "6.18054", 6.18054, "mmol/L", 3.85, 7.4, "NORMAL", "", 5.0, "WEEK 4", "TREATMENT", "2013-09-24T08:16", 27], [426, "CDISCPILOT01", "LB", "CDISC003", 82, "CK", "Creatine Kinase", "CHEMISTRY", "123", "U/L", "22", "198", "123", 123.0, "U/L", 22.0, 198.0, "NORMAL", "", 5.0, "WEEK 4", "TREATMENT", "2013-09-24T08:16", 27], [427, "CDISCPILOT01", "LB", "CDISC003", 83, "CL", "Chloride", "CHEMISTRY", "109", "mEq/L", "94", "112", "109", 109.0, "mmol/L", 94.0, 112.0, "NORMAL", "", 5.0, "WEEK 4", "TREATMENT", "2013-09-24T08:16", 27], [428, "CDISCPILOT01", "LB", "CDISC003", 84, "CREAT", "Creatinine", "CHEMISTRY", "1.2", "mg/dL", "0.8", "1.6", "106.08", 106.08, "umol/L", 71.0, 141.0, "NORMAL", "", 5.0, "WEEK 4", "TREATMENT", "2013-09-24T08:16", 27], [429, "CDISCPILOT01", "LB", "CDISC003", 85, "EOS", "Eosinophils", "HEMATOLOGY", "0.32", "10^9/L", "0", "0.57", "0.32", 0.32, "10^9/L", 0.0, 0.57, "NORMAL", "", 5.0, "WEEK 4", "TREATMENT", "2013-09-24T08:16", 27], [430, "CDISCPILOT01", "LB", "CDISC003", 86, "GGT", "Gamma Glutamyl Transferase", "CHEMISTRY", "17", "U/L", "10", "50", "17", 17.0, "U/L", 10.0, 50.0, "NORMAL", "", 5.0, "WEEK 4", "TREATMENT", "2013-09-24T08:16", 27], [431, "CDISCPILOT01", "LB", "CDISC003", 87, "GLUC", "Glucose", "CHEMISTRY", "102", "mg/dL", "50", "250", "5.66202", 5.66202, "mmol/L", 2.8, 13.9, "NORMAL", "", 5.0, "WEEK 4", "TREATMENT", "2013-09-24T08:16", 27], [432, "CDISCPILOT01", "LB", "CDISC003", 88, "HCT", "Hematocrit", "HEMATOLOGY", "41.0", "%", "37", "51", "0.41", 0.41, "", 0.37, 0.51, "NORMAL", "", 5.0, "WEEK 4", "TREATMENT", "2013-09-24T08:16", 27], [433, "CDISCPILOT01", "LB", "CDISC003", 89, "HGB", "Hemoglobin", "HEMATOLOGY", "13.8", "g/dL", "12.5", "17", "8.56428", 8.564279999999998, "mmol/L", 7.76, 10.55, "NORMAL", "", 5.0, "WEEK 4", "TREATMENT", "2013-09-24T08:16", 27], [434, "CDISCPILOT01", "LB", "CDISC003", 90, "K", "Potassium", "CHEMISTRY", "4.1", "mEq/L", "3.4", "5.4", "4.1", 4.1, "mmol/L", 3.4, 5.3999999999999995, "NORMAL", "", 5.0, "WEEK 4", "TREATMENT", "2013-09-24T08:16", 27], [435, "CDISCPILOT01", "LB", "CDISC003", 91, "LYM", "Lymphocytes", "HEMATOLOGY", "1.25", "10^9/L", "0.8", "3", "1.25", 1.25, "10^9/L", 0.8, 3.0, "NORMAL", "", 5.0, "WEEK 4", "TREATMENT", "2013-09-24T08:16", 27], [436, "CDISCPILOT01", "LB", "CDISC003", 92, "MCH", "Ery. Mean Corpuscular Hemoglobin", "HEMATOLOGY", "31", "pg", "26", "34", "1.92386", 1.92386, "fmol", 1.6, 2.1, "NORMAL", "", 5.0, "WEEK 4", "TREATMENT", "2013-09-24T08:16", 27], [437, "CDISCPILOT01", "LB", "CDISC003", 93, "MCHC", "Ery. Mean Corpuscular HGB Concentration", "HEMATOLOGY", "34", "g/dL", "31", "38", "21.1004", 21.1004, "mmol/L", 19.0, 24.0, "NORMAL", "", 5.0, "WEEK 4", "TREATMENT", "2013-09-24T08:16", 27], [438, "CDISCPILOT01", "LB", "CDISC003", 94, "MCV", "Ery. Mean Corpuscular Volume", "HEMATOLOGY", "93", "fL", "80", "100", "93", 93.0, "fL", 80.0, 100.0, "NORMAL", "", 5.0, "WEEK 4", "TREATMENT", "2013-09-24T08:16", 27], [439, "CDISCPILOT01", "LB", "CDISC003", 95, "MONO", "Monocytes", "HEMATOLOGY", "0.42", "10^9/L", "0.12", "0.92", "0.42", 0.42, "10^9/L", 0.12, 0.92, "NORMAL", "", 5.0, "WEEK 4", "TREATMENT", "2013-09-24T08:16", 27], [440, "CDISCPILOT01", "LB", "CDISC003", 96, "SODIUM", "Sodium", "CHEMISTRY", "136", "mEq/L", "135", "145", "136", 136.0, "mmol/L", 135.0, 145.0, "NORMAL", "", 5.0, "WEEK 4", "TREATMENT", "2013-09-24T08:16", 27], [441, "CDISCPILOT01", "LB", "CDISC003", 97, "PHOS", "Phosphate", "CHEMISTRY", "2.9", "mg/dL", "2.2", "5.1", "0.93641", 0.93641, "mmol/L", 0.71, 1.65, "NORMAL", "", 5.0, "WEEK 4", "TREATMENT", "2013-09-24T08:16", 27], [442, "CDISCPILOT01", "LB", "CDISC003", 98, "PLAT", "Platelets", "HEMATOLOGY", "234", "10^9/L", "130", "394", "234", 234.0, "10^9/L", 130.0, 394.0, "NORMAL", "", 5.0, "WEEK 4", "TREATMENT", "2013-09-24T08:16", 27], [443, "CDISCPILOT01", "LB", "CDISC003", 99, "PROT", "Protein", "CHEMISTRY", "7.4", "g/dL", "6", "8", "74", 74.0, "g/L", 60.0, 80.0, "NORMAL", "", 5.0, "WEEK 4", "TREATMENT", "2013-09-24T08:16", 27], [444, "CDISCPILOT01", "LB", "CDISC003", 100, "RBC", "Erythrocytes", "HEMATOLOGY", "4.40", "10^12/L", "4", "5.8", "4.4", 4.3999999999999995, "10^12/L", 4.0, 5.8, "NORMAL", "", 5.0, "WEEK 4", "TREATMENT", "2013-09-24T08:16", 27], [445, "CDISCPILOT01", "LB", "CDISC003", 101, "URATE", "Urate", "CHEMISTRY", "4.5", "mg/dL", "2.5", "7.5", "267.66", 267.66, "umol/L", 149.0, 446.0, "NORMAL", "", 5.0, "WEEK 4", "TREATMENT", "2013-09-24T08:16", 27], [446, "CDISCPILOT01", "LB", "CDISC003", 102, "WBC", "Leukocytes", "HEMATOLOGY", "4.47", "10^9/L", "3.8", "10.7", "4.47", 4.47, "10^9/L", 3.8, 10.7, "NORMAL", "", 5.0, "WEEK 4", "TREATMENT", "2013-09-24T08:16", 27], [447, "CDISCPILOT01", "LB", "CDISC003", 103, "ALB", "Albumin", "CHEMISTRY", "4.1", "g/dL", "3.3", "4.9", "41", 41.0, "g/L", 33.0, 49.0, "NORMAL", "", 7.0, "WEEK 6", "TREATMENT", "2013-10-08T15:30", 41], [448, "CDISCPILOT01", "LB", "CDISC003", 104, "ALP", "Alkaline Phosphatase", "CHEMISTRY", "77", "U/L", "35", "115", "77", 77.0, "U/L", 35.0, 115.0, "NORMAL", "", 7.0, "WEEK 6", "TREATMENT", "2013-10-08T15:30", 41], [449, "CDISCPILOT01", "LB", "CDISC003", 105, "ALT", "Alanine Aminotransferase", "CHEMISTRY", "52", "U/L", "6", "43", "52", 52.0, "U/L", 6.0, 43.0, "HIGH", "", 7.0, "WEEK 6", "TREATMENT", "2013-10-08T15:30", 41], [450, "CDISCPILOT01", "LB", "CDISC003", 106, "AST", "Aspartate Aminotransferase", "CHEMISTRY", "73", "U/L", "11", "36", "73", 73.0, "U/L", 11.0, 36.0, "HIGH", "", 7.0, "WEEK 6", "TREATMENT", "2013-10-08T15:30", 41], [451, "CDISCPILOT01", "LB", "CDISC003", 107, "BASO", "Basophils", "HEMATOLOGY", "0.06", "10^9/L", "0", "0.2", "0.06", 0.06, "10^9/L", 0.0, 0.2, "NORMAL", "", 7.0, "WEEK 6", "TREATMENT", "2013-10-08T15:30", 41], [452, "CDISCPILOT01", "LB", "CDISC003", 108, "BILI", "Bilirubin", "CHEMISTRY", "0.6", "mg/dL", "0.2", "1.2", "10.26", 10.26, "umol/L", 3.0, 21.0, "NORMAL", "", 7.0, "WEEK 6", "TREATMENT", "2013-10-08T15:30", 41], [453, "CDISCPILOT01", "LB", "CDISC003", 109, "UREAN", "Urea Nitrogen", "CHEMISTRY", "16", "mg/dL", "4", "24", "5.712", 5.712, "mmol/L", 1.4, 8.6, "NORMAL", "", 7.0, "WEEK 6", "TREATMENT", "2013-10-08T15:30", 41], [454, "CDISCPILOT01", "LB", "CDISC003", 110, "CA", "Calcium", "CHEMISTRY", "9.2", "mg/dL", "8.4", "10.3", "2.2954", 2.2954, "mmol/L", 2.1, 2.57, "NORMAL", "", 7.0, "WEEK 6", "TREATMENT", "2013-10-08T15:30", 41], [455, "CDISCPILOT01", "LB", "CDISC003", 111, "CHOL", "Cholesterol", "CHEMISTRY", "232", "mg/dL", "149", "286", "5.99952", 5.99952, "mmol/L", 3.85, 7.4, "NORMAL", "", 7.0, "WEEK 6", "TREATMENT", "2013-10-08T15:30", 41], [456, "CDISCPILOT01", "LB", "CDISC003", 112, "CK", "Creatine Kinase", "CHEMISTRY", "1860", "U/L", "22", "198", "1860", 1860.0, "U/L", 22.0, 198.0, "HIGH", "", 7.0, "WEEK 6", "TREATMENT", "2013-10-08T15:30", 41], [457, "CDISCPILOT01", "LB", "CDISC003", 113, "CL", "Chloride", "CHEMISTRY", "109", "mEq/L", "94", "112", "109", 109.0, "mmol/L", 94.0, 112.0, "NORMAL", "", 7.0, "WEEK 6", "TREATMENT", "2013-10-08T15:30", 41], [458, "CDISCPILOT01", "LB", "CDISC003", 114, "CREAT", "Creatinine", "CHEMISTRY", "1.3", "mg/dL", "0.8", "1.6", "114.92", 114.92, "umol/L", 71.0, 141.0, "NORMAL", "", 7.0, "WEEK 6", "TREATMENT", "2013-10-08T15:30", 41], [459, "CDISCPILOT01", "LB", "CDISC003", 115, "EOS", "Eosinophils", "HEMATOLOGY", "0.30", "10^9/L", "0", "0.57", "0.3", 0.3, "10^9/L", 0.0, 0.57, "NORMAL", "", 7.0, "WEEK 6", "TREATMENT", "2013-10-08T15:30", 41], [460, "CDISCPILOT01", "LB", "CDISC003", 116, "GGT", "Gamma Glutamyl Transferase", "CHEMISTRY", "13", "U/L", "10", "50", "13", 13.0, "U/L", 10.0, 50.0, "NORMAL", "", 7.0, "WEEK 6", "TREATMENT", "2013-10-08T15:30", 41], [461, "CDISCPILOT01", "LB", "CDISC003", 117, "GLUC", "Glucose", "CHEMISTRY", "86", "mg/dL", "50", "250", "4.77386", 4.77386, "mmol/L", 2.8, 13.9, "NORMAL", "", 7.0, "WEEK 6", "TREATMENT", "2013-10-08T15:30", 41], [462, "CDISCPILOT01", "LB", "CDISC003", 118, "HCT", "Hematocrit", "HEMATOLOGY", "38.0", "%", "37", "51", "0.38", 0.38, "", 0.37, 0.51, "NORMAL", "", 7.0, "WEEK 6", "TREATMENT", "2013-10-08T15:30", 41], [463, "CDISCPILOT01", "LB", "CDISC003", 119, "HGB", "Hemoglobin", "HEMATOLOGY", "13.3", "g/dL", "12.5", "17", "8.25398", 8.253979999999999, "mmol/L", 7.76, 10.55, "NORMAL", "", 7.0, "WEEK 6", "TREATMENT", "2013-10-08T15:30", 41], [464, "CDISCPILOT01", "LB", "CDISC003", 120, "K", "Potassium", "CHEMISTRY", "3.9", "mEq/L", "3.4", "5.4", "3.9", 3.9, "mmol/L", 3.4, 5.3999999999999995, "NORMAL", "", 7.0, "WEEK 6", "TREATMENT", "2013-10-08T15:30", 41], [465, "CDISCPILOT01", "LB", "CDISC003", 121, "LYM", "Lymphocytes", "HEMATOLOGY", "1.82", "10^9/L", "0.8", "3", "1.82", 1.82, "10^9/L", 0.8, 3.0, "NORMAL", "", 7.0, "WEEK 6", "TREATMENT", "2013-10-08T15:30", 41], [466, "CDISCPILOT01", "LB", "CDISC003", 122, "MCH", "Ery. Mean Corpuscular Hemoglobin", "HEMATOLOGY", "32", "pg", "26", "34", "1.98592", 1.98592, "fmol", 1.6, 2.1, "NORMAL", "", 7.0, "WEEK 6", "TREATMENT", "2013-10-08T15:30", 41], [467, "CDISCPILOT01", "LB", "CDISC003", 123, "MCHC", "Ery. Mean Corpuscular HGB Concentration", "HEMATOLOGY", "35", "g/dL", "31", "38", "21.721", 21.721, "mmol/L", 19.0, 24.0, "NORMAL", "", 7.0, "WEEK 6", "TREATMENT", "2013-10-08T15:30", 41], [468, "CDISCPILOT01", "LB", "CDISC003", 124, "MCV", "Ery. Mean Corpuscular Volume", "HEMATOLOGY", "91", "fL", "80", "100", "91", 91.0, "fL", 80.0, 100.0, "NORMAL", "", 7.0, "WEEK 6", "TREATMENT", "2013-10-08T15:30", 41], [469, "CDISCPILOT01", "LB", "CDISC003", 125, "MONO", "Monocytes", "HEMATOLOGY", "0.30", "10^9/L", "0.12", "0.92", "0.3", 0.3, "10^9/L", 0.12, 0.92, "NORMAL", "", 7.0, "WEEK 6", "TREATMENT", "2013-10-08T15:30", 41], [470, "CDISCPILOT01", "LB", "CDISC003", 126, "SODIUM", "Sodium", "CHEMISTRY", "137", "mEq/L", "135", "145", "137", 137.0, "mmol/L", 135.0, 145.0, "NORMAL", "", 7.0, "WEEK 6", "TREATMENT", "2013-10-08T15:30", 41], [471, "CDISCPILOT01", "LB", "CDISC003", 127, "PHOS", "Phosphate", "CHEMISTRY", "3.1", "mg/dL", "2.2", "5.1", "1.00099", 1.00099, "mmol/L", 0.71, 1.65, "NORMAL", "", 7.0, "WEEK 6", "TREATMENT", "2013-10-08T15:30", 41], [472, "CDISCPILOT01", "LB", "CDISC003", 128, "PLAT", "Platelets", "HEMATOLOGY", "194", "10^9/L", "130", "394", "194", 194.0, "10^9/L", 130.0, 394.0, "NORMAL", "", 7.0, "WEEK 6", "TREATMENT", "2013-10-08T15:30", 41], [473, "CDISCPILOT01", "LB", "CDISC003", 129, "PROT", "Protein", "CHEMISTRY", "7.2", "g/dL", "6", "8", "72", 72.0, "g/L", 60.0, 80.0, "NORMAL", "", 7.0, "WEEK 6", "TREATMENT", "2013-10-08T15:30", 41], [474, "CDISCPILOT01", "LB", "CDISC003", 130, "RBC", "Erythrocytes", "HEMATOLOGY", "4.20", "10^12/L", "4", "5.8", "4.2", 4.199999999999999, "10^12/L", 4.0, 5.8, "NORMAL", "", 7.0, "WEEK 6", "TREATMENT", "2013-10-08T15:30", 41], [475, "CDISCPILOT01", "LB", "CDISC003", 131, "URATE", "Urate", "CHEMISTRY", "4.2", "mg/dL", "2.5", "7.5", "249.816", 249.81599999999997, "umol/L", 149.0, 446.0, "NORMAL", "", 7.0, "WEEK 6", "TREATMENT", "2013-10-08T15:30", 41], [476, "CDISCPILOT01", "LB", "CDISC003", 132, "WBC", "Leukocytes", "HEMATOLOGY", "6.07", "10^9/L", "3.8", "10.7", "6.07", 6.069999999999999, "10^9/L", 3.8, 10.7, "NORMAL", "", 7.0, "WEEK 6", "TREATMENT", "2013-10-08T15:30", 41], [477, "CDISCPILOT01", "LB", "CDISC003", 133, "ALB", "Albumin", "CHEMISTRY", "4.1", "g/dL", "3.3", "4.9", "41", 41.0, "g/L", 33.0, 49.0, "NORMAL", "", 8.0, "WEEK 8", "TREATMENT", "2013-10-22T11:54", 55], [478, "CDISCPILOT01", "LB", "CDISC003", 134, "ALP", "Alkaline Phosphatase", "CHEMISTRY", "62", "U/L", "35", "115", "62", 62.0, "U/L", 35.0, 115.0, "NORMAL", "", 8.0, "WEEK 8", "TREATMENT", "2013-10-22T11:54", 55], [479, "CDISCPILOT01", "LB", "CDISC003", 135, "ALT", "Alanine Aminotransferase", "CHEMISTRY", "33", "U/L", "6", "43", "33", 33.0, "U/L", 6.0, 43.0, "NORMAL", "", 8.0, "WEEK 8", "TREATMENT", "2013-10-22T11:54", 55], [480, "CDISCPILOT01", "LB", "CDISC003", 136, "AST", "Aspartate Aminotransferase", "CHEMISTRY", "30", "U/L", "11", "36", "30", 30.0, "U/L", 11.0, 36.0, "NORMAL", "", 8.0, "WEEK 8", "TREATMENT", "2013-10-22T11:54", 55], [481, "CDISCPILOT01", "LB", "CDISC003", 137, "BASO", "Basophils", "HEMATOLOGY", "0.04", "10^9/L", "0", "0.2", "0.04", 0.039999999999999994, "10^9/L", 0.0, 0.2, "NORMAL", "", 8.0, "WEEK 8", "TREATMENT", "2013-10-22T11:54", 55], [482, "CDISCPILOT01", "LB", "CDISC003", 138, "BILI", "Bilirubin", "CHEMISTRY", "0.5", "mg/dL", "0.2", "1.2", "8.55", 8.549999999999999, "umol/L", 3.0, 21.0, "NORMAL", "", 8.0, "WEEK 8", "TREATMENT", "2013-10-22T11:54", 55], [483, "CDISCPILOT01", "LB", "CDISC003", 139, "UREAN", "Urea Nitrogen", "CHEMISTRY", "14", "mg/dL", "4", "24", "4.998", 4.997999999999999, "mmol/L", 1.4, 8.6, "NORMAL", "", 8.0, "WEEK 8", "TREATMENT", "2013-10-22T11:54", 55], [484, "CDISCPILOT01", "LB", "CDISC003", 140, "CA", "Calcium", "CHEMISTRY", "9.5", "mg/dL", "8.4", "10.3", "2.37025", 2.37025, "mmol/L", 2.1, 2.57, "NORMAL", "", 8.0, "WEEK 8", "TREATMENT", "2013-10-22T11:54", 55], [485, "CDISCPILOT01", "LB", "CDISC003", 141, "CHOL", "Cholesterol", "CHEMISTRY", "241", "mg/dL", "149", "286", "6.23226", 6.232259999999999, "mmol/L", 3.85, 7.4, "NORMAL", "", 8.0, "WEEK 8", "TREATMENT", "2013-10-22T11:54", 55], [486, "CDISCPILOT01", "LB", "CDISC003", 142, "CK", "Creatine Kinase", "CHEMISTRY", "145", "U/L", "22", "198", "145", 145.0, "U/L", 22.0, 198.0, "NORMAL", "", 8.0, "WEEK 8", "TREATMENT", "2013-10-22T11:54", 55], [487, "CDISCPILOT01", "LB", "CDISC003", 143, "CL", "Chloride", "CHEMISTRY", "105", "mEq/L", "94", "112", "105", 105.0, "mmol/L", 94.0, 112.0, "NORMAL", "", 8.0, "WEEK 8", "TREATMENT", "2013-10-22T11:54", 55], [488, "CDISCPILOT01", "LB", "CDISC003", 144, "CREAT", "Creatinine", "CHEMISTRY", "1.3", "mg/dL", "0.8", "1.6", "114.92", 114.92, "umol/L", 71.0, 141.0, "NORMAL", "", 8.0, "WEEK 8", "TREATMENT", "2013-10-22T11:54", 55], [489, "CDISCPILOT01", "LB", "CDISC003", 145, "EOS", "Eosinophils", "HEMATOLOGY", "0.22", "10^9/L", "0", "0.57", "0.22", 0.22, "10^9/L", 0.0, 0.57, "NORMAL", "", 8.0, "WEEK 8", "TREATMENT", "2013-10-22T11:54", 55], [490, "CDISCPILOT01", "LB", "CDISC003", 146, "GGT", "Gamma Glutamyl Transferase", "CHEMISTRY", "14", "U/L", "10", "50", "14", 14.0, "U/L", 10.0, 50.0, "NORMAL", "", 8.0, "WEEK 8", "TREATMENT", "2013-10-22T11:54", 55], [491, "CDISCPILOT01", "LB", "CDISC003", 147, "GLUC", "Glucose", "CHEMISTRY", "92", "mg/dL", "50", "250", "5.10692", 5.10692, "mmol/L", 2.8, 13.9, "NORMAL", "", 8.0, "WEEK 8", "TREATMENT", "2013-10-22T11:54", 55], [492, "CDISCPILOT01", "LB", "CDISC003", 148, "HCT", "Hematocrit", "HEMATOLOGY", "43.0", "%", "37", "51", "0.43", 0.43, "", 0.37, 0.51, "NORMAL", "", 8.0, "WEEK 8", "TREATMENT", "2013-10-22T11:54", 55], [493, "CDISCPILOT01", "LB", "CDISC003", 149, "HGB", "Hemoglobin", "HEMATOLOGY", "14.5", "g/dL", "12.5", "17", "8.9987", 8.9987, "mmol/L", 7.76, 10.55, "NORMAL", "", 8.0, "WEEK 8", "TREATMENT", "2013-10-22T11:54", 55], [494, "CDISCPILOT01", "LB", "CDISC003", 150, "K", "Potassium", "CHEMISTRY", "4.3", "mEq/L", "3.4", "5.4", "4.3", 4.3, "mmol/L", 3.4, 5.3999999999999995, "NORMAL", "", 8.0, "WEEK 8", "TREATMENT", "2013-10-22T11:54", 55], [495, "CDISCPILOT01", "LB", "CDISC003", 151, "LYM", "Lymphocytes", "HEMATOLOGY", "1.54", "10^9/L", "0.8", "3", "1.54", 1.54, "10^9/L", 0.8, 3.0, "NORMAL", "", 8.0, "WEEK 8", "TREATMENT", "2013-10-22T11:54", 55], [496, "CDISCPILOT01", "LB", "CDISC003", 152, "MCH", "Ery. Mean Corpuscular Hemoglobin", "HEMATOLOGY", "32", "pg", "26", "34", "1.98592", 1.98592, "fmol", 1.6, 2.1, "NORMAL", "", 8.0, "WEEK 8", "TREATMENT", "2013-10-22T11:54", 55], [497, "CDISCPILOT01", "LB", "CDISC003", 153, "MCHC", "Ery. Mean Corpuscular HGB Concentration", "HEMATOLOGY", "34", "g/dL", "31", "38", "21.1004", 21.1004, "mmol/L", 19.0, 24.0, "NORMAL", "", 8.0, "WEEK 8", "TREATMENT", "2013-10-22T11:54", 55], [498, "CDISCPILOT01", "LB", "CDISC003", 154, "MCV", "Ery. Mean Corpuscular Volume", "HEMATOLOGY", "93", "fL", "80", "100", "93", 93.0, "fL", 80.0, 100.0, "NORMAL", "", 8.0, "WEEK 8", "TREATMENT", "2013-10-22T11:54", 55], [499, "CDISCPILOT01", "LB", "CDISC003", 155, "MONO", "Monocytes", "HEMATOLOGY", "0.40", "10^9/L", "0.12", "0.92", "0.4", 0.4, "10^9/L", 0.12, 0.92, "NORMAL", "", 8.0, "WEEK 8", "TREATMENT", "2013-10-22T11:54", 55], [500, "CDISCPILOT01", "LB", "CDISC003", 156, "SODIUM", "Sodium", "CHEMISTRY", "136", "mEq/L", "135", "145", "136", 136.0, "mmol/L", 135.0, 145.0, "NORMAL", "", 8.0, "WEEK 8", "TREATMENT", "2013-10-22T11:54", 55], [501, "CDISCPILOT01", "LB", "CDISC003", 157, "PHOS", "Phosphate", "CHEMISTRY", "3.3", "mg/dL", "2.2", "5.1", "1.06557", 1.06557, "mmol/L", 0.71, 1.65, "NORMAL", "", 8.0, "WEEK 8", "TREATMENT", "2013-10-22T11:54", 55], [502, "CDISCPILOT01", "LB", "CDISC003", 158, "PLAT", "Platelets", "HEMATOLOGY", "225", "10^9/L", "130", "394", "225", 225.0, "10^9/L", 130.0, 394.0, "NORMAL", "", 8.0, "WEEK 8", "TREATMENT", "2013-10-22T11:54", 55], [503, "CDISCPILOT01", "LB", "CDISC003", 159, "PROT", "Protein", "CHEMISTRY", "7.4", "g/dL", "6", "8", "74", 74.0, "g/L", 60.0, 80.0, "NORMAL", "", 8.0, "WEEK 8", "TREATMENT", "2013-10-22T11:54", 55], [504, "CDISCPILOT01", "LB", "CDISC003", 160, "RBC", "Erythrocytes", "HEMATOLOGY", "4.60", "10^12/L", "4", "5.8", "4.6", 4.6, "10^12/L", 4.0, 5.8, "NORMAL", "", 8.0, "WEEK 8", "TREATMENT", "2013-10-22T11:54", 55], [505, "CDISCPILOT01", "LB", "CDISC003", 161, "URATE", "Urate", "CHEMISTRY", "3.6", "mg/dL", "2.5", "7.5", "214.128", 214.128, "umol/L", 149.0, 446.0, "NORMAL", "", 8.0, "WEEK 8", "TREATMENT", "2013-10-22T11:54", 55], [506, "CDISCPILOT01", "LB", "CDISC003", 162, "WBC", "Leukocytes", "HEMATOLOGY", "4.64", "10^9/L", "3.8", "10.7", "4.64", 4.64, "10^9/L", 3.8, 10.7, "NORMAL", "", 8.0, "WEEK 8", "TREATMENT", "2013-10-22T11:54", 55], [507, "CDISCPILOT01", "LB", "CDISC003", 163, "ALB", "Albumin", "CHEMISTRY", "4.1", "g/dL", "3.3", "4.9", "41", 41.0, "g/L", 33.0, 49.0, "NORMAL", "", 9.0, "WEEK 12", "TREATMENT", "2013-11-05T13:54", 69], [508, "CDISCPILOT01", "LB", "CDISC003", 164, "ALP", "Alkaline Phosphatase", "CHEMISTRY", "62", "U/L", "35", "115", "62", 62.0, "U/L", 35.0, 115.0, "NORMAL", "", 9.0, "WEEK 12", "TREATMENT", "2013-11-05T13:54", 69], [509, "CDISCPILOT01", "LB", "CDISC003", 165, "ALT", "Alanine Aminotransferase", "CHEMISTRY", "24", "U/L", "6", "43", "24", 24.0, "U/L", 6.0, 43.0, "NORMAL", "", 9.0, "WEEK 12", "TREATMENT", "2013-11-05T13:54", 69], [510, "CDISCPILOT01", "LB", "CDISC003", 166, "AST", "Aspartate Aminotransferase", "CHEMISTRY", "25", "U/L", "11", "36", "25", 25.0, "U/L", 11.0, 36.0, "NORMAL", "", 9.0, "WEEK 12", "TREATMENT", "2013-11-05T13:54", 69], [511, "CDISCPILOT01", "LB", "CDISC003", 167, "BASO", "Basophils", "HEMATOLOGY", "0.05", "10^9/L", "0", "0.2", "0.05", 0.05, "10^9/L", 0.0, 0.2, "NORMAL", "", 9.0, "WEEK 12", "TREATMENT", "2013-11-05T13:54", 69], [512, "CDISCPILOT01", "LB", "CDISC003", 168, "BILI", "Bilirubin", "CHEMISTRY", "0.5", "mg/dL", "0.2", "1.2", "8.55", 8.549999999999999, "umol/L", 3.0, 21.0, "NORMAL", "", 9.0, "WEEK 12", "TREATMENT", "2013-11-05T13:54", 69], [513, "CDISCPILOT01", "LB", "CDISC003", 169, "UREAN", "Urea Nitrogen", "CHEMISTRY", "13", "mg/dL", "4", "24", "4.641", 4.641, "mmol/L", 1.4, 8.6, "NORMAL", "", 9.0, "WEEK 12", "TREATMENT", "2013-11-05T13:54", 69], [514, "CDISCPILOT01", "LB", "CDISC003", 170, "CA", "Calcium", "CHEMISTRY", "9.3", "mg/dL", "8.4", "10.3", "2.32035", 2.32035, "mmol/L", 2.1, 2.57, "NORMAL", "", 9.0, "WEEK 12", "TREATMENT", "2013-11-05T13:54", 69], [515, "CDISCPILOT01", "LB", "CDISC003", 171, "CHOL", "Cholesterol", "CHEMISTRY", "232", "mg/dL", "149", "286", "5.99952", 5.99952, "mmol/L", 3.85, 7.4, "NORMAL", "", 9.0, "WEEK 12", "TREATMENT", "2013-11-05T13:54", 69], [516, "CDISCPILOT01", "LB", "CDISC003", 172, "CK", "Creatine Kinase", "CHEMISTRY", "112", "U/L", "22", "198", "112", 112.0, "U/L", 22.0, 198.0, "NORMAL", "", 9.0, "WEEK 12", "TREATMENT", "2013-11-05T13:54", 69], [517, "CDISCPILOT01", "LB", "CDISC003", 173, "CL", "Chloride", "CHEMISTRY", "106", "mEq/L", "94", "112", "106", 106.0, "mmol/L", 94.0, 112.0, "NORMAL", "", 9.0, "WEEK 12", "TREATMENT", "2013-11-05T13:54", 69], [518, "CDISCPILOT01", "LB", "CDISC003", 174, "COLOR", "Color", "URINALYSIS", "NORMAL", "", "", "", "NORMAL", null, "", null, null, "NORMAL", "", 9.0, "WEEK 12", "TREATMENT", "2013-11-05T13:54", 69], [519, "CDISCPILOT01", "LB", "CDISC003", 175, "CREAT", "Creatinine", "CHEMISTRY", "1.3", "mg/dL", "0.8", "1.6", "114.92", 114.92, "umol/L", 71.0, 141.0, "NORMAL", "", 9.0, "WEEK 12", "TREATMENT", "2013-11-05T13:54", 69], [520, "CDISCPILOT01", "LB", "CDISC003", 176, "EOS", "Eosinophils", "HEMATOLOGY", "0.50", "10^9/L", "0", "0.57", "0.5", 0.5, "10^9/L", 0.0, 0.57, "NORMAL", "", 9.0, "WEEK 12", "TREATMENT", "2013-11-05T13:54", 69], [521, "CDISCPILOT01", "LB", "CDISC003", 177, "GGT", "Gamma Glutamyl Transferase", "CHEMISTRY", "13", "U/L", "10", "50", "13", 13.0, "U/L", 10.0, 50.0, "NORMAL", "", 9.0, "WEEK 12", "TREATMENT", "2013-11-05T13:54", 69], [522, "CDISCPILOT01", "LB", "CDISC003", 178, "GLUC", "Glucose", "CHEMISTRY", "93", "mg/dL", "50", "250", "5.16243", 5.16243, "mmol/L", 2.8, 13.9, "NORMAL", "", 9.0, "WEEK 12", "TREATMENT", "2013-11-05T13:54", 69], [523, "CDISCPILOT01", "LB", "CDISC003", 179, "HCT", "Hematocrit", "HEMATOLOGY", "41.0", "%", "37", "51", "0.41", 0.41, "", 0.37, 0.51, "NORMAL", "", 9.0, "WEEK 12", "TREATMENT", "2013-11-05T13:54", 69], [524, "CDISCPILOT01", "LB", "CDISC003", 180, "HGB", "Hemoglobin", "HEMATOLOGY", "13.6", "g/dL", "12.5", "17", "8.44016", 8.440159999999999, "mmol/L", 7.76, 10.55, "NORMAL", "", 9.0, "WEEK 12", "TREATMENT", "2013-11-05T13:54", 69], [525, "CDISCPILOT01", "LB", "CDISC003", 181, "K", "Potassium", "CHEMISTRY", "4.1", "mEq/L", "3.4", "5.4", "4.1", 4.1, "mmol/L", 3.4, 5.3999999999999995, "NORMAL", "", 9.0, "WEEK 12", "TREATMENT", "2013-11-05T13:54", 69], [526, "CDISCPILOT01", "LB", "CDISC003", 182, "KETONES", "Ketones", "URINALYSIS", "0", "", "", "", "0", 0.0, "", null, null, "NORMAL", "", 9.0, "WEEK 12", "TREATMENT", "2013-11-05T13:54", 69], [527, "CDISCPILOT01", "LB", "CDISC003", 183, "LYM", "Lymphocytes", "HEMATOLOGY", "1.55", "10^9/L", "0.8", "3", "1.55", 1.55, "10^9/L", 0.8, 3.0, "NORMAL", "", 9.0, "WEEK 12", "TREATMENT", "2013-11-05T13:54", 69], [528, "CDISCPILOT01", "LB", "CDISC003", 184, "MCH", "Ery. Mean Corpuscular Hemoglobin", "HEMATOLOGY", "31", "pg", "26", "34", "1.92386", 1.92386, "fmol", 1.6, 2.1, "NORMAL", "", 9.0, "WEEK 12", "TREATMENT", "2013-11-05T13:54", 69], [529, "CDISCPILOT01", "LB", "CDISC003", 185, "MCHC", "Ery. Mean Corpuscular HGB Concentration", "HEMATOLOGY", "34", "g/dL", "31", "38", "21.1004", 21.1004, "mmol/L", 19.0, 24.0, "NORMAL", "", 9.0, "WEEK 12", "TREATMENT", "2013-11-05T13:54", 69], [530, "CDISCPILOT01", "LB", "CDISC003", 186, "MCV", "Ery. Mean Corpuscular Volume", "HEMATOLOGY", "92", "fL", "80", "100", "92", 92.0, "fL", 80.0, 100.0, "NORMAL", "", 9.0, "WEEK 12", "TREATMENT", "2013-11-05T13:54", 69], [531, "CDISCPILOT01", "LB", "CDISC003", 187, "MONO", "Monocytes", "HEMATOLOGY", "0.54", "10^9/L", "0.12", "0.92", "0.54", 0.5399999999999999, "10^9/L", 0.12, 0.92, "NORMAL", "", 9.0, "WEEK 12", "TREATMENT", "2013-11-05T13:54", 69], [532, "CDISCPILOT01", "LB", "CDISC003", 188, "SODIUM", "Sodium", "CHEMISTRY", "139", "mEq/L", "135", "145", "139", 139.0, "mmol/L", 135.0, 145.0, "NORMAL", "", 9.0, "WEEK 12", "TREATMENT", "2013-11-05T13:54", 69], [533, "CDISCPILOT01", "LB", "CDISC003", 189, "PH", "pH", "URINALYSIS", "5", "", "5", "8", "5", 5.0, "", 5.0, 8.0, "NORMAL", "", 9.0, "WEEK 12", "TREATMENT", "2013-11-05T13:54", 69], [534, "CDISCPILOT01", "LB", "CDISC003", 190, "PHOS", "Phosphate", "CHEMISTRY", "3.5", "mg/dL", "2.2", "5.1", "1.13015", 1.13015, "mmol/L", 0.71, 1.65, "NORMAL", "", 9.0, "WEEK 12", "TREATMENT", "2013-11-05T13:54", 69], [535, "CDISCPILOT01", "LB", "CDISC003", 191, "PLAT", "Platelets", "HEMATOLOGY", "224", "10^9/L", "130", "394", "224", 224.0, "10^9/L", 130.0, 394.0, "NORMAL", "", 9.0, "WEEK 12", "TREATMENT", "2013-11-05T13:54", 69], [536, "CDISCPILOT01", "LB", "CDISC003", 192, "PROT", "Protein", "CHEMISTRY", "7.4", "g/dL", "6", "8", "74", 74.0, "g/L", 60.0, 80.0, "NORMAL", "", 9.0, "WEEK 12", "TREATMENT", "2013-11-05T13:54", 69], [537, "CDISCPILOT01", "LB", "CDISC003", 193, "RBC", "Erythrocytes", "HEMATOLOGY", "4.40", "10^12/L", "4", "5.8", "4.4", 4.3999999999999995, "10^12/L", 4.0, 5.8, "NORMAL", "", 9.0, "WEEK 12", "TREATMENT", "2013-11-05T13:54", 69], [538, "CDISCPILOT01", "LB", "CDISC003", 194, "SPGRAV", "Specific Gravity", "URINALYSIS", "1.013", "", "1.006", "1.03", "1.013", 1.013, "", 1.006, 1.03, "NORMAL", "", 9.0, "WEEK 12", "TREATMENT", "2013-11-05T13:54", 69], [539, "CDISCPILOT01", "LB", "CDISC003", 195, "URATE", "Urate", "CHEMISTRY", "3.6", "mg/dL", "2.5", "7.5", "214.128", 214.128, "umol/L", 149.0, 446.0, "NORMAL", "", 9.0, "WEEK 12", "TREATMENT", "2013-11-05T13:54", 69], [540, "CDISCPILOT01", "LB", "CDISC003", 196, "UROBIL", "Urobilinogen", "URINALYSIS", "0", "", "", "", "0", 0.0, "", null, null, "NORMAL", "", 9.0, "WEEK 12", "TREATMENT", "2013-11-05T13:54", 69], [541, "CDISCPILOT01", "LB", "CDISC003", 197, "WBC", "Leukocytes", "HEMATOLOGY", "5.59", "10^9/L", "3.8", "10.7", "5.59", 5.59, "10^9/L", 3.8, 10.7, "NORMAL", "", 9.0, "WEEK 12", "TREATMENT", "2013-11-05T13:54", 69], [542, "CDISCPILOT01", "LB", "CDISC004", 1, "ALB", "Albumin", "CHEMISTRY", "4.5", "g/dL", "3.3", "4.9", "45", 45.0, "g/L", 33.0, 49.0, "NORMAL", "Y", 1.0, "SCREENING 1", "SCREENING", "2013-10-01T12:50", -7], [543, "CDISCPILOT01", "LB", "CDISC004", 2, "ALP", "Alkaline Phosphatase", "CHEMISTRY", "60", "U/L", "35", "115", "60", 60.0, "U/L", 35.0, 115.0, "NORMAL", "Y", 1.0, "SCREENING 1", "SCREENING", "2013-10-01T12:50", -7], [544, "CDISCPILOT01", "LB", "CDISC004", 3, "ALT", "Alanine Aminotransferase", "CHEMISTRY", "13", "U/L", "6", "34", "13", 13.0, "U/L", 6.0, 34.0, "NORMAL", "Y", 1.0, "SCREENING 1", "SCREENING", "2013-10-01T12:50", -7], [545, "CDISCPILOT01", "LB", "CDISC004", 4, "AST", "Aspartate Aminotransferase", "CHEMISTRY", "22", "U/L", "9", "34", "22", 22.0, "U/L", 9.0, 34.0, "NORMAL", "Y", 1.0, "SCREENING 1", "SCREENING", "2013-10-01T12:50", -7], [546, "CDISCPILOT01", "LB", "CDISC004", 5, "BASO", "Basophils", "HEMATOLOGY", "0.09", "10^9/L", "0", "0.2", "0.09", 0.09, "10^9/L", 0.0, 0.2, "NORMAL", "Y", 1.0, "SCREENING 1", "SCREENING", "2013-10-01T12:50", -7], [547, "CDISCPILOT01", "LB", "CDISC004", 6, "BILI", "Bilirubin", "CHEMISTRY", "0.5", "mg/dL", "0.2", "1.2", "8.55", 8.549999999999999, "umol/L", 3.0, 21.0, "NORMAL", "Y", 1.0, "SCREENING 1", "SCREENING", "2013-10-01T12:50", -7], [548, "CDISCPILOT01", "LB", "CDISC004", 7, "UREAN", "Urea Nitrogen", "CHEMISTRY", "14", "mg/dL", "4", "24", "4.998", 4.997999999999999, "mmol/L", 1.4, 8.6, "NORMAL", "Y", 1.0, "SCREENING 1", "SCREENING", "2013-10-01T12:50", -7], [549, "CDISCPILOT01", "LB", "CDISC004", 8, "CA", "Calcium", "CHEMISTRY", "9.6", "mg/dL", "8.4", "10.3", "2.3952", 2.3952, "mmol/L", 2.1, 2.57, "NORMAL", "Y", 1.0, "SCREENING 1", "SCREENING", "2013-10-01T12:50", -7], [550, "CDISCPILOT01", "LB", "CDISC004", 9, "CHOL", "Cholesterol", "CHEMISTRY", "227", "mg/dL", "156", "300", "5.87022", 5.87022, "mmol/L", 4.029999999999999, 7.76, "NORMAL", "Y", 1.0, "SCREENING 1", "SCREENING", "2013-10-01T12:50", -7], [551, "CDISCPILOT01", "LB", "CDISC004", 10, "CK", "Creatine Kinase", "CHEMISTRY", "142", "U/L", "21", "169", "142", 142.0, "U/L", 21.0, 169.0, "NORMAL", "Y", 1.0, "SCREENING 1", "SCREENING", "2013-10-01T12:50", -7], [552, "CDISCPILOT01", "LB", "CDISC004", 11, "CL", "Chloride", "CHEMISTRY", "104", "mEq/L", "94", "112", "104", 104.0, "mmol/L", 94.0, 112.0, "NORMAL", "Y", 1.0, "SCREENING 1", "SCREENING", "2013-10-01T12:50", -7], [553, "CDISCPILOT01", "LB", "CDISC004", 12, "COLOR", "Color", "URINALYSIS", "NORMAL", "", "", "", "NORMAL", null, "", null, null, "NORMAL", "Y", 1.0, "SCREENING 1", "SCREENING", "2013-10-01T12:50", -7], [554, "CDISCPILOT01", "LB", "CDISC004", 13, "CREAT", "Creatinine", "CHEMISTRY", "1.1", "mg/dL", "0.7", "1.4", "97.24", 97.24, "umol/L", 62.0, 124.0, "NORMAL", "Y", 1.0, "SCREENING 1", "SCREENING", "2013-10-01T12:50", -7], [555, "CDISCPILOT01", "LB", "CDISC004", 14, "EOS", "Eosinophils", "HEMATOLOGY", "0.14", "10^9/L", "0", "0.57", "0.14", 0.14, "10^9/L", 0.0, 0.57, "NORMAL", "Y", 1.0, "SCREENING 1", "SCREENING", "2013-10-01T12:50", -7], [556, "CDISCPILOT01", "LB", "CDISC004", 15, "GGT", "Gamma Glutamyl Transferase", "CHEMISTRY", "10", "U/L", "5", "50", "10", 10.0, "U/L", 5.0, 50.0, "NORMAL", "Y", 1.0, "SCREENING 1", "SCREENING", "2013-10-01T12:50", -7], [557, "CDISCPILOT01", "LB", "CDISC004", 16, "GLUC", "Glucose", "CHEMISTRY", "85", "mg/dL", "50", "250", "4.71835", 4.71835, "mmol/L", 2.8, 13.9, "NORMAL", "Y", 1.0, "SCREENING 1", "SCREENING", "2013-10-01T12:50", -7], [558, "CDISCPILOT01", "LB", "CDISC004", 17, "HCT", "Hematocrit", "HEMATOLOGY", "43.0", "%", "34", "48", "0.43", 0.43, "", 0.33999999999999997, 0.48, "NORMAL", "Y", 1.0, "SCREENING 1", "SCREENING", "2013-10-01T12:50", -7], [559, "CDISCPILOT01", "LB", "CDISC004", 18, "HGB", "Hemoglobin", "HEMATOLOGY", "13.9", "g/dL", "11.5", "15.8", "8.62634", 8.62634, "mmol/L", 7.14, 9.809999999999999, "NORMAL", "Y", 1.0, "SCREENING 1", "SCREENING", "2013-10-01T12:50", -7], [560, "CDISCPILOT01", "LB", "CDISC004", 19, "K", "Potassium", "CHEMISTRY", "3.6", "mEq/L", "3.4", "5.4", "3.6", 3.6, "mmol/L", 3.4, 5.3999999999999995, "NORMAL", "Y", 1.0, "SCREENING 1", "SCREENING", "2013-10-01T12:50", -7], [561, "CDISCPILOT01", "LB", "CDISC004", 20, "KETONES", "Ketones", "URINALYSIS", "0", "", "", "", "0", 0.0, "", null, null, "NORMAL", "Y", 1.0, "SCREENING 1", "SCREENING", "2013-10-01T12:50", -7], [562, "CDISCPILOT01", "LB", "CDISC004", 21, "LYM", "Lymphocytes", "HEMATOLOGY", "1.87", "10^9/L", "0.8", "3", "1.87", 1.87, "10^9/L", 0.8, 3.0, "NORMAL", "Y", 1.0, "SCREENING 1", "SCREENING", "2013-10-01T12:50", -7], [563, "CDISCPILOT01", "LB", "CDISC004", 22, "MCH", "Ery. Mean Corpuscular Hemoglobin", "HEMATOLOGY", "28", "pg", "26", "34", "1.73768", 1.73768, "fmol", 1.6, 2.1, "NORMAL", "Y", 1.0, "SCREENING 1", "SCREENING", "2013-10-01T12:50", -7], [564, "CDISCPILOT01", "LB", "CDISC004", 23, "MCHC", "Ery. Mean Corpuscular HGB Concentration", "HEMATOLOGY", "32", "g/dL", "31", "38", "19.8592", 19.8592, "mmol/L", 19.0, 24.0, "NORMAL", "Y", 1.0, "SCREENING 1", "SCREENING", "2013-10-01T12:50", -7], [565, "CDISCPILOT01", "LB", "CDISC004", 24, "MCV", "Ery. Mean Corpuscular Volume", "HEMATOLOGY", "87", "fL", "80", "100", "87", 87.0, "fL", 80.0, 100.0, "NORMAL", "Y", 1.0, "SCREENING 1", "SCREENING", "2013-10-01T12:50", -7], [566, "CDISCPILOT01", "LB", "CDISC004", 25, "MONO", "Monocytes", "HEMATOLOGY", "0.45", "10^9/L", "0.12", "0.92", "0.45", 0.45, "10^9/L", 0.12, 0.92, "NORMAL", "Y", 1.0, "SCREENING 1", "SCREENING", "2013-10-01T12:50", -7], [567, "CDISCPILOT01", "LB", "CDISC004", 26, "SODIUM", "Sodium", "CHEMISTRY", "138", "mEq/L", "135", "145", "138", 138.0, "mmol/L", 135.0, 145.0, "NORMAL", "Y", 1.0, "SCREENING 1", "SCREENING", "2013-10-01T12:50", -7], [568, "CDISCPILOT01", "LB", "CDISC004", 27, "PH", "pH", "URINALYSIS", "5", "", "5", "8", "5", 5.0, "", 5.0, 8.0, "NORMAL", "Y", 1.0, "SCREENING 1", "SCREENING", "2013-10-01T12:50", -7], [569, "CDISCPILOT01", "LB", "CDISC004", 28, "PHOS", "Phosphate", "CHEMISTRY", "4.0", "mg/dL", "2.2", "5.1", "1.2916", 1.2916, "mmol/L", 0.71, 1.65, "NORMAL", "Y", 1.0, "SCREENING 1", "SCREENING", "2013-10-01T12:50", -7], [570, "CDISCPILOT01", "LB", "CDISC004", 29, "PLAT", "Platelets", "HEMATOLOGY", "418", "10^9/L", "130", "394", "418", 418.0, "10^9/L", 130.0, 394.0, "HIGH", "Y", 1.0, "SCREENING 1", "SCREENING", "2013-10-01T12:50", -7], [571, "CDISCPILOT01", "LB", "CDISC004", 30, "PROT", "Protein", "CHEMISTRY", "7.4", "g/dL", "6", "8", "74", 74.0, "g/L", 60.0, 80.0, "NORMAL", "Y", 1.0, "SCREENING 1", "SCREENING", "2013-10-01T12:50", -7], [572, "CDISCPILOT01", "LB", "CDISC004", 31, "RBC", "Erythrocytes", "HEMATOLOGY", "5.00", "10^12/L", "3.9", "5.5", "5", 5.0, "10^12/L", 3.9, 5.5, "NORMAL", "Y", 1.0, "SCREENING 1", "SCREENING", "2013-10-01T12:50", -7], [573, "CDISCPILOT01", "LB", "CDISC004", 32, "SPGRAV", "Specific Gravity", "URINALYSIS", "1.013", "", "1.006", "1.03", "1.013", 1.013, "", 1.006, 1.03, "NORMAL", "Y", 1.0, "SCREENING 1", "SCREENING", "2013-10-01T12:50", -7], [574, "CDISCPILOT01", "LB", "CDISC004", 33, "TSH", "Thyrotropin", "OTHER", ".94", "mIU/L", ".32", "5", ".94", 0.94, "mU/L", 0.32, 5.0, "NORMAL", "Y", 1.0, "SCREENING 1", "SCREENING", "2013-10-01T12:50", -7], [575, "CDISCPILOT01", "LB", "CDISC004", 34, "URATE", "Urate", "CHEMISTRY", "5.1", "mg/dL", "2.5", "7.5", "303.348", 303.348, "umol/L", 149.0, 446.0, "NORMAL", "Y", 1.0, "SCREENING 1", "SCREENING", "2013-10-01T12:50", -7], [576, "CDISCPILOT01", "LB", "CDISC004", 35, "UROBIL", "Urobilinogen", "URINALYSIS", "0", "", "", "", "0", 0.0, "", null, null, "NORMAL", "Y", 1.0, "SCREENING 1", "SCREENING", "2013-10-01T12:50", -7], [577, "CDISCPILOT01", "LB", "CDISC004", 36, "VITB12", "Vitamin B12", "OTHER", "302", "ng/L", "200", "900", "222.8156", 222.8156, "pmol/L", 148.0, 664.0, "NORMAL", "Y", 1.0, "SCREENING 1", "SCREENING", "2013-10-01T12:50", -7], [578, "CDISCPILOT01", "LB", "CDISC004", 37, "WBC", "Leukocytes", "HEMATOLOGY", "8.60", "10^9/L", "3.8", "10.7", "8.6", 8.6, "10^9/L", 3.8, 10.7, "NORMAL", "Y", 1.0, "SCREENING 1", "SCREENING", "2013-10-01T12:50", -7], [579, "CDISCPILOT01", "LB", "CDISC004", 38, "ALB", "Albumin", "CHEMISTRY", "4.1", "g/dL", "3.3", "4.9", "41", 41.0, "g/L", 33.0, 49.0, "NORMAL", "", 4.0, "WEEK 2", "TREATMENT", "2013-10-24T10:41", 17], [580, "CDISCPILOT01", "LB", "CDISC004", 39, "ALP", "Alkaline Phosphatase", "CHEMISTRY", "61", "U/L", "35", "115", "61", 61.0, "U/L", 35.0, 115.0, "NORMAL", "", 4.0, "WEEK 2", "TREATMENT", "2013-10-24T10:41", 17], [581, "CDISCPILOT01", "LB", "CDISC004", 40, "ALT", "Alanine Aminotransferase", "CHEMISTRY", "9", "U/L", "6", "34", "9", 9.0, "U/L", 6.0, 34.0, "NORMAL", "", 4.0, "WEEK 2", "TREATMENT", "2013-10-24T10:41", 17], [582, "CDISCPILOT01", "LB", "CDISC004", 41, "AST", "Aspartate Aminotransferase", "CHEMISTRY", "18", "U/L", "9", "34", "18", 18.0, "U/L", 9.0, 34.0, "NORMAL", "", 4.0, "WEEK 2", "TREATMENT", "2013-10-24T10:41", 17], [583, "CDISCPILOT01", "LB", "CDISC004", 42, "BASO", "Basophils", "HEMATOLOGY", "0.05", "10^9/L", "0", "0.2", "0.05", 0.05, "10^9/L", 0.0, 0.2, "NORMAL", "", 4.0, "WEEK 2", "TREATMENT", "2013-10-24T10:41", 17], [584, "CDISCPILOT01", "LB", "CDISC004", 43, "BILI", "Bilirubin", "CHEMISTRY", "0.4", "mg/dL", "0.2", "1.2", "6.84", 6.84, "umol/L", 3.0, 21.0, "NORMAL", "", 4.0, "WEEK 2", "TREATMENT", "2013-10-24T10:41", 17], [585, "CDISCPILOT01", "LB", "CDISC004", 44, "UREAN", "Urea Nitrogen", "CHEMISTRY", "15", "mg/dL", "4", "24", "5.355", 5.3549999999999995, "mmol/L", 1.4, 8.6, "NORMAL", "", 4.0, "WEEK 2", "TREATMENT", "2013-10-24T10:41", 17], [586, "CDISCPILOT01", "LB", "CDISC004", 45, "CA", "Calcium", "CHEMISTRY", "9.2", "mg/dL", "8.4", "10.3", "2.2954", 2.2954, "mmol/L", 2.1, 2.57, "NORMAL", "", 4.0, "WEEK 2", "TREATMENT", "2013-10-24T10:41", 17], [587, "CDISCPILOT01", "LB", "CDISC004", 46, "CHOL", "Cholesterol", "CHEMISTRY", "198", "mg/dL", "156", "300", "5.12028", 5.120279999999999, "mmol/L", 4.029999999999999, 7.76, "NORMAL", "", 4.0, "WEEK 2", "TREATMENT", "2013-10-24T10:41", 17], [588, "CDISCPILOT01", "LB", "CDISC004", 47, "CK", "Creatine Kinase", "CHEMISTRY", "99", "U/L", "21", "169", "99", 99.0, "U/L", 21.0, 169.0, "NORMAL", "", 4.0, "WEEK 2", "TREATMENT", "2013-10-24T10:41", 17], [589, "CDISCPILOT01", "LB", "CDISC004", 48, "CL", "Chloride", "CHEMISTRY", "108", "mEq/L", "94", "112", "108", 108.0, "mmol/L", 94.0, 112.0, "NORMAL", "", 4.0, "WEEK 2", "TREATMENT", "2013-10-24T10:41", 17], [590, "CDISCPILOT01", "LB", "CDISC004", 49, "COLOR", "Color", "URINALYSIS", "NORMAL", "", "", "", "NORMAL", null, "", null, null, "NORMAL", "", 4.0, "WEEK 2", "TREATMENT", "2013-10-24T10:41", 17], [591, "CDISCPILOT01", "LB", "CDISC004", 50, "CREAT", "Creatinine", "CHEMISTRY", "1.0", "mg/dL", "0.7", "1.4", "88.4", 88.39999999999998, "umol/L", 62.0, 124.0, "NORMAL", "", 4.0, "WEEK 2", "TREATMENT", "2013-10-24T10:41", 17], [592, "CDISCPILOT01", "LB", "CDISC004", 51, "EOS", "Eosinophils", "HEMATOLOGY", "0.07", "10^9/L", "0", "0.57", "0.07", 0.07, "10^9/L", 0.0, 0.57, "NORMAL", "", 4.0, "WEEK 2", "TREATMENT", "2013-10-24T10:41", 17], [593, "CDISCPILOT01", "LB", "CDISC004", 52, "GGT", "Gamma Glutamyl Transferase", "CHEMISTRY", "9", "U/L", "5", "50", "9", 9.0, "U/L", 5.0, 50.0, "NORMAL", "", 4.0, "WEEK 2", "TREATMENT", "2013-10-24T10:41", 17], [594, "CDISCPILOT01", "LB", "CDISC004", 53, "GLUC", "Glucose", "CHEMISTRY", "81", "mg/dL", "50", "250", "4.49631", 4.496309999999999, "mmol/L", 2.8, 13.9, "NORMAL", "", 4.0, "WEEK 2", "TREATMENT", "2013-10-24T10:41", 17], [595, "CDISCPILOT01", "LB", "CDISC004", 54, "HCT", "Hematocrit", "HEMATOLOGY", "43.0", "%", "34", "48", "0.43", 0.43, "", 0.33999999999999997, 0.48, "NORMAL", "", 4.0, "WEEK 2", "TREATMENT", "2013-10-24T10:41", 17], [596, "CDISCPILOT01", "LB", "CDISC004", 55, "HGB", "Hemoglobin", "HEMATOLOGY", "13.7", "g/dL", "11.5", "15.8", "8.50222", 8.50222, "mmol/L", 7.14, 9.809999999999999, "NORMAL", "", 4.0, "WEEK 2", "TREATMENT", "2013-10-24T10:41", 17], [597, "CDISCPILOT01", "LB", "CDISC004", 56, "K", "Potassium", "CHEMISTRY", "4.4", "mEq/L", "3.4", "5.4", "4.4", 4.3999999999999995, "mmol/L", 3.4, 5.3999999999999995, "NORMAL", "", 4.0, "WEEK 2", "TREATMENT", "2013-10-24T10:41", 17], [598, "CDISCPILOT01", "LB", "CDISC004", 57, "KETONES", "Ketones", "URINALYSIS", "0", "", "", "", "0", 0.0, "", null, null, "NORMAL", "", 4.0, "WEEK 2", "TREATMENT", "2013-10-24T10:41", 17], [599, "CDISCPILOT01", "LB", "CDISC004", 58, "LYM", "Lymphocytes", "HEMATOLOGY", "1.20", "10^9/L", "0.8", "3", "1.2", 1.2, "10^9/L", 0.8, 3.0, "NORMAL", "", 4.0, "WEEK 2", "TREATMENT", "2013-10-24T10:41", 17], [600, "CDISCPILOT01", "LB", "CDISC004", 59, "MCH", "Ery. Mean Corpuscular Hemoglobin", "HEMATOLOGY", "28", "pg", "26", "34", "1.73768", 1.73768, "fmol", 1.6, 2.1, "NORMAL", "", 4.0, "WEEK 2", "TREATMENT", "2013-10-24T10:41", 17], [601, "CDISCPILOT01", "LB", "CDISC004", 60, "MCHC", "Ery. Mean Corpuscular HGB Concentration", "HEMATOLOGY", "32", "g/dL", "31", "38", "19.8592", 19.8592, "mmol/L", 19.0, 24.0, "NORMAL", "", 4.0, "WEEK 2", "TREATMENT", "2013-10-24T10:41", 17], [602, "CDISCPILOT01", "LB", "CDISC004", 61, "MCV", "Ery. Mean Corpuscular Volume", "HEMATOLOGY", "87", "fL", "80", "100", "87", 87.0, "fL", 80.0, 100.0, "NORMAL", "", 4.0, "WEEK 2", "TREATMENT", "2013-10-24T10:41", 17], [603, "CDISCPILOT01", "LB", "CDISC004", 62, "MONO", "Monocytes", "HEMATOLOGY", "0.41", "10^9/L", "0.12", "0.92", "0.41", 0.41, "10^9/L", 0.12, 0.92, "NORMAL", "", 4.0, "WEEK 2", "TREATMENT", "2013-10-24T10:41", 17], [604, "CDISCPILOT01", "LB", "CDISC004", 63, "SODIUM", "Sodium", "CHEMISTRY", "141", "mEq/L", "135", "145", "141", 141.0, "mmol/L", 135.0, 145.0, "NORMAL", "", 4.0, "WEEK 2", "TREATMENT", "2013-10-24T10:41", 17], [605, "CDISCPILOT01", "LB", "CDISC004", 64, "PH", "pH", "URINALYSIS", "5", "", "5", "8", "5", 5.0, "", 5.0, 8.0, "NORMAL", "", 4.0, "WEEK 2", "TREATMENT", "2013-10-24T10:41", 17], [606, "CDISCPILOT01", "LB", "CDISC004", 65, "PHOS", "Phosphate", "CHEMISTRY", "4.1", "mg/dL", "2.2", "5.1", "1.32389", 1.32389, "mmol/L", 0.71, 1.65, "NORMAL", "", 4.0, "WEEK 2", "TREATMENT", "2013-10-24T10:41", 17], [607, "CDISCPILOT01", "LB", "CDISC004", 66, "PLAT", "Platelets", "HEMATOLOGY", "360", "10^9/L", "130", "394", "360", 360.0, "10^9/L", 130.0, 394.0, "NORMAL", "", 4.0, "WEEK 2", "TREATMENT", "2013-10-24T10:41", 17], [608, "CDISCPILOT01", "LB", "CDISC004", 67, "PROT", "Protein", "CHEMISTRY", "6.8", "g/dL", "6", "8", "68", 68.0, "g/L", 60.0, 80.0, "NORMAL", "", 4.0, "WEEK 2", "TREATMENT", "2013-10-24T10:41", 17], [609, "CDISCPILOT01", "LB", "CDISC004", 68, "RBC", "Erythrocytes", "HEMATOLOGY", "4.90", "10^12/L", "3.9", "5.5", "4.9", 4.8999999999999995, "10^12/L", 3.9, 5.5, "NORMAL", "", 4.0, "WEEK 2", "TREATMENT", "2013-10-24T10:41", 17], [610, "CDISCPILOT01", "LB", "CDISC004", 69, "SPGRAV", "Specific Gravity", "URINALYSIS", "1.015", "", "1.006", "1.03", "1.015", 1.015, "", 1.006, 1.03, "NORMAL", "", 4.0, "WEEK 2", "TREATMENT", "2013-10-24T10:41", 17], [611, "CDISCPILOT01", "LB", "CDISC004", 70, "URATE", "Urate", "CHEMISTRY", "4.2", "mg/dL", "2.5", "7.5", "249.816", 249.81599999999997, "umol/L", 149.0, 446.0, "NORMAL", "", 4.0, "WEEK 2", "TREATMENT", "2013-10-24T10:41", 17], [612, "CDISCPILOT01", "LB", "CDISC004", 71, "UROBIL", "Urobilinogen", "URINALYSIS", "0", "", "", "", "0", 0.0, "", null, null, "NORMAL", "", 4.0, "WEEK 2", "TREATMENT", "2013-10-24T10:41", 17], [613, "CDISCPILOT01", "LB", "CDISC004", 72, "WBC", "Leukocytes", "HEMATOLOGY", "4.87", "10^9/L", "3.8", "10.7", "4.87", 4.87, "10^9/L", 3.8, 10.7, "NORMAL", "", 4.0, "WEEK 2", "TREATMENT", "2013-10-24T10:41", 17], [614, "CDISCPILOT01", "LB", "CDISC004", 73, "ALB", "Albumin", "CHEMISTRY", "4.7", "g/dL", "3.3", "4.9", "47", 47.0, "g/L", 33.0, 49.0, "NORMAL", "", 5.0, "WEEK 4", "TREATMENT", "2013-11-08T11:32", 32], [615, "CDISCPILOT01", "LB", "CDISC004", 74, "ALP", "Alkaline Phosphatase", "CHEMISTRY", "69", "U/L", "35", "115", "69", 69.0, "U/L", 35.0, 115.0, "NORMAL", "", 5.0, "WEEK 4", "TREATMENT", "2013-11-08T11:32", 32], [616, "CDISCPILOT01", "LB", "CDISC004", 75, "ALT", "Alanine Aminotransferase", "CHEMISTRY", "11", "U/L", "6", "34", "11", 11.0, "U/L", 6.0, 34.0, "NORMAL", "", 5.0, "WEEK 4", "TREATMENT", "2013-11-08T11:32", 32], [617, "CDISCPILOT01", "LB", "CDISC004", 76, "AST", "Aspartate Aminotransferase", "CHEMISTRY", "25", "U/L", "9", "34", "25", 25.0, "U/L", 9.0, 34.0, "NORMAL", "", 5.0, "WEEK 4", "TREATMENT", "2013-11-08T11:32", 32], [618, "CDISCPILOT01", "LB", "CDISC004", 77, "BASO", "Basophils", "HEMATOLOGY", "0.09", "10^9/L", "0", "0.2", "0.09", 0.09, "10^9/L", 0.0, 0.2, "NORMAL", "", 5.0, "WEEK 4", "TREATMENT", "2013-11-08T11:32", 32], [619, "CDISCPILOT01", "LB", "CDISC004", 78, "BILI", "Bilirubin", "CHEMISTRY", "0.5", "mg/dL", "0.2", "1.2", "8.55", 8.549999999999999, "umol/L", 3.0, 21.0, "NORMAL", "", 5.0, "WEEK 4", "TREATMENT", "2013-11-08T11:32", 32], [620, "CDISCPILOT01", "LB", "CDISC004", 79, "UREAN", "Urea Nitrogen", "CHEMISTRY", "12", "mg/dL", "4", "24", "4.284", 4.284, "mmol/L", 1.4, 8.6, "NORMAL", "", 5.0, "WEEK 4", "TREATMENT", "2013-11-08T11:32", 32], [621, "CDISCPILOT01", "LB", "CDISC004", 80, "CA", "Calcium", "CHEMISTRY", "9.4", "mg/dL", "8.4", "10.3", "2.3453", 2.3453, "mmol/L", 2.1, 2.57, "NORMAL", "", 5.0, "WEEK 4", "TREATMENT", "2013-11-08T11:32", 32], [622, "CDISCPILOT01", "LB", "CDISC004", 81, "CHOL", "Cholesterol", "CHEMISTRY", "220", "mg/dL", "156", "300", "5.6892", 5.6892, "mmol/L", 4.029999999999999, 7.76, "NORMAL", "", 5.0, "WEEK 4", "TREATMENT", "2013-11-08T11:32", 32], [623, "CDISCPILOT01", "LB", "CDISC004", 82, "CK", "Creatine Kinase", "CHEMISTRY", "140", "U/L", "21", "169", "140", 140.0, "U/L", 21.0, 169.0, "NORMAL", "", 5.0, "WEEK 4", "TREATMENT", "2013-11-08T11:32", 32], [624, "CDISCPILOT01", "LB", "CDISC004", 83, "CL", "Chloride", "CHEMISTRY", "111", "mEq/L", "94", "112", "111", 111.0, "mmol/L", 94.0, 112.0, "NORMAL", "", 5.0, "WEEK 4", "TREATMENT", "2013-11-08T11:32", 32], [625, "CDISCPILOT01", "LB", "CDISC004", 84, "CREAT", "Creatinine", "CHEMISTRY", "1.0", "mg/dL", "0.7", "1.4", "88.4", 88.39999999999998, "umol/L", 62.0, 124.0, "NORMAL", "", 5.0, "WEEK 4", "TREATMENT", "2013-11-08T11:32", 32], [626, "CDISCPILOT01", "LB", "CDISC004", 85, "EOS", "Eosinophils", "HEMATOLOGY", "0.08", "10^9/L", "0", "0.57", "0.08", 0.08, "10^9/L", 0.0, 0.57, "NORMAL", "", 5.0, "WEEK 4", "TREATMENT", "2013-11-08T11:32", 32], [627, "CDISCPILOT01", "LB", "CDISC004", 86, "GGT", "Gamma Glutamyl Transferase", "CHEMISTRY", "12", "U/L", "5", "50", "12", 12.0, "U/L", 5.0, 50.0, "NORMAL", "", 5.0, "WEEK 4", "TREATMENT", "2013-11-08T11:32", 32], [628, "CDISCPILOT01", "LB", "CDISC004", 87, "GLUC", "Glucose", "CHEMISTRY", "94", "mg/dL", "50", "250", "5.21794", 5.21794, "mmol/L", 2.8, 13.9, "NORMAL", "", 5.0, "WEEK 4", "TREATMENT", "2013-11-08T11:32", 32], [629, "CDISCPILOT01", "LB", "CDISC004", 88, "HCT", "Hematocrit", "HEMATOLOGY", "45.0", "%", "34", "48", "0.45", 0.45, "", 0.33999999999999997, 0.48, "NORMAL", "", 5.0, "WEEK 4", "TREATMENT", "2013-11-08T11:32", 32], [630, "CDISCPILOT01", "LB", "CDISC004", 89, "HGB", "Hemoglobin", "HEMATOLOGY", "13.8", "g/dL", "11.5", "15.8", "8.56428", 8.564279999999998, "mmol/L", 7.14, 9.809999999999999, "NORMAL", "", 5.0, "WEEK 4", "TREATMENT", "2013-11-08T11:32", 32], [631, "CDISCPILOT01", "LB", "CDISC004", 90, "K", "Potassium", "CHEMISTRY", "4.7", "mEq/L", "3.4", "5.4", "4.7", 4.699999999999999, "mmol/L", 3.4, 5.3999999999999995, "NORMAL", "", 5.0, "WEEK 4", "TREATMENT", "2013-11-08T11:32", 32], [632, "CDISCPILOT01", "LB", "CDISC004", 91, "LYM", "Lymphocytes", "HEMATOLOGY", "2.34", "10^9/L", "0.8", "3", "2.34", 2.34, "10^9/L", 0.8, 3.0, "NORMAL", "", 5.0, "WEEK 4", "TREATMENT", "2013-11-08T11:32", 32], [633, "CDISCPILOT01", "LB", "CDISC004", 92, "MCH", "Ery. Mean Corpuscular Hemoglobin", "HEMATOLOGY", "28", "pg", "26", "34", "1.73768", 1.73768, "fmol", 1.6, 2.1, "NORMAL", "", 5.0, "WEEK 4", "TREATMENT", "2013-11-08T11:32", 32], [634, "CDISCPILOT01", "LB", "CDISC004", 93, "MCHC", "Ery. Mean Corpuscular HGB Concentration", "HEMATOLOGY", "31", "g/dL", "31", "38", "19.2386", 19.2386, "mmol/L", 19.0, 24.0, "NORMAL", "", 5.0, "WEEK 4", "TREATMENT", "2013-11-08T11:32", 32], [635, "CDISCPILOT01", "LB", "CDISC004", 94, "MCV", "Ery. Mean Corpuscular Volume", "HEMATOLOGY", "90", "fL", "80", "100", "90", 90.0, "fL", 80.0, 100.0, "NORMAL", "", 5.0, "WEEK 4", "TREATMENT", "2013-11-08T11:32", 32], [636, "CDISCPILOT01", "LB", "CDISC004", 95, "MONO", "Monocytes", "HEMATOLOGY", "0.69", "10^9/L", "0.12", "0.92", "0.69", 0.69, "10^9/L", 0.12, 0.92, "NORMAL", "", 5.0, "WEEK 4", "TREATMENT", "2013-11-08T11:32", 32], [637, "CDISCPILOT01", "LB", "CDISC004", 96, "SODIUM", "Sodium", "CHEMISTRY", "143", "mEq/L", "135", "145", "143", 143.0, "mmol/L", 135.0, 145.0, "NORMAL", "", 5.0, "WEEK 4", "TREATMENT", "2013-11-08T11:32", 32], [638, "CDISCPILOT01", "LB", "CDISC004", 97, "PHOS", "Phosphate", "CHEMISTRY", "4.1", "mg/dL", "2.2", "5.1", "1.32389", 1.32389, "mmol/L", 0.71, 1.65, "NORMAL", "", 5.0, "WEEK 4", "TREATMENT", "2013-11-08T11:32", 32], [639, "CDISCPILOT01", "LB", "CDISC004", 98, "PLAT", "Platelets", "HEMATOLOGY", "397", "10^9/L", "130", "394", "397", 397.0, "10^9/L", 130.0, 394.0, "HIGH", "", 5.0, "WEEK 4", "TREATMENT", "2013-11-08T11:32", 32], [640, "CDISCPILOT01", "LB", "CDISC004", 99, "PROT", "Protein", "CHEMISTRY", "7.6", "g/dL", "6", "8", "76", 76.0, "g/L", 60.0, 80.0, "NORMAL", "", 5.0, "WEEK 4", "TREATMENT", "2013-11-08T11:32", 32], [641, "CDISCPILOT01", "LB", "CDISC004", 100, "RBC", "Erythrocytes", "HEMATOLOGY", "5.00", "10^12/L", "3.9", "5.5", "5", 5.0, "10^12/L", 3.9, 5.5, "NORMAL", "", 5.0, "WEEK 4", "TREATMENT", "2013-11-08T11:32", 32], [642, "CDISCPILOT01", "LB", "CDISC004", 101, "URATE", "Urate", "CHEMISTRY", "4.3", "mg/dL", "2.5", "7.5", "255.764", 255.764, "umol/L", 149.0, 446.0, "NORMAL", "", 5.0, "WEEK 4", "TREATMENT", "2013-11-08T11:32", 32], [643, "CDISCPILOT01", "LB", "CDISC004", 102, "WBC", "Leukocytes", "HEMATOLOGY", "7.73", "10^9/L", "3.8", "10.7", "7.73", 7.73, "10^9/L", 3.8, 10.7, "NORMAL", "", 5.0, "WEEK 4", "TREATMENT", "2013-11-08T11:32", 32], [644, "CDISCPILOT01", "LB", "CDISC004", 103, "ALB", "Albumin", "CHEMISTRY", "4.3", "g/dL", "3.3", "4.9", "43", 43.0, "g/L", 33.0, 49.0, "NORMAL", "", 7.0, "WEEK 6", "TREATMENT", "2013-11-19T13:22", 43], [645, "CDISCPILOT01", "LB", "CDISC004", 104, "ALP", "Alkaline Phosphatase", "CHEMISTRY", "65", "U/L", "35", "115", "65", 65.0, "U/L", 35.0, 115.0, "NORMAL", "", 7.0, "WEEK 6", "TREATMENT", "2013-11-19T13:22", 43], [646, "CDISCPILOT01", "LB", "CDISC004", 105, "ALT", "Alanine Aminotransferase", "CHEMISTRY", "10", "U/L", "6", "34", "10", 10.0, "U/L", 6.0, 34.0, "NORMAL", "", 7.0, "WEEK 6", "TREATMENT", "2013-11-19T13:22", 43], [647, "CDISCPILOT01", "LB", "CDISC004", 106, "AST", "Aspartate Aminotransferase", "CHEMISTRY", "22", "U/L", "9", "34", "22", 22.0, "U/L", 9.0, 34.0, "NORMAL", "", 7.0, "WEEK 6", "TREATMENT", "2013-11-19T13:22", 43], [648, "CDISCPILOT01", "LB", "CDISC004", 107, "BASO", "Basophils", "HEMATOLOGY", "0.09", "10^9/L", "0", "0.2", "0.09", 0.09, "10^9/L", 0.0, 0.2, "NORMAL", "", 7.0, "WEEK 6", "TREATMENT", "2013-11-19T13:22", 43], [649, "CDISCPILOT01", "LB", "CDISC004", 108, "BILI", "Bilirubin", "CHEMISTRY", "0.4", "mg/dL", "0.2", "1.2", "6.84", 6.84, "umol/L", 3.0, 21.0, "NORMAL", "", 7.0, "WEEK 6", "TREATMENT", "2013-11-19T13:22", 43], [650, "CDISCPILOT01", "LB", "CDISC004", 109, "UREAN", "Urea Nitrogen", "CHEMISTRY", "13", "mg/dL", "4", "24", "4.641", 4.641, "mmol/L", 1.4, 8.6, "NORMAL", "", 7.0, "WEEK 6", "TREATMENT", "2013-11-19T13:22", 43], [651, "CDISCPILOT01", "LB", "CDISC004", 110, "CA", "Calcium", "CHEMISTRY", "9.3", "mg/dL", "8.4", "10.3", "2.32035", 2.32035, "mmol/L", 2.1, 2.57, "NORMAL", "", 7.0, "WEEK 6", "TREATMENT", "2013-11-19T13:22", 43], [652, "CDISCPILOT01", "LB", "CDISC004", 111, "CHOL", "Cholesterol", "CHEMISTRY", "203", "mg/dL", "156", "300", "5.24958", 5.24958, "mmol/L", 4.029999999999999, 7.76, "NORMAL", "", 7.0, "WEEK 6", "TREATMENT", "2013-11-19T13:22", 43], [653, "CDISCPILOT01", "LB", "CDISC004", 112, "CK", "Creatine Kinase", "CHEMISTRY", "134", "U/L", "21", "169", "134", 134.0, "U/L", 21.0, 169.0, "NORMAL", "", 7.0, "WEEK 6", "TREATMENT", "2013-11-19T13:22", 43], [654, "CDISCPILOT01", "LB", "CDISC004", 113, "CL", "Chloride", "CHEMISTRY", "106", "mEq/L", "94", "112", "106", 106.0, "mmol/L", 94.0, 112.0, "NORMAL", "", 7.0, "WEEK 6", "TREATMENT", "2013-11-19T13:22", 43], [655, "CDISCPILOT01", "LB", "CDISC004", 114, "CREAT", "Creatinine", "CHEMISTRY", "0.9", "mg/dL", "0.7", "1.4", "79.56", 79.55999999999999, "umol/L", 62.0, 124.0, "NORMAL", "", 7.0, "WEEK 6", "TREATMENT", "2013-11-19T13:22", 43], [656, "CDISCPILOT01", "LB", "CDISC004", 115, "EOS", "Eosinophils", "HEMATOLOGY", "0.09", "10^9/L", "0", "0.57", "0.09", 0.09, "10^9/L", 0.0, 0.57, "NORMAL", "", 7.0, "WEEK 6", "TREATMENT", "2013-11-19T13:22", 43], [657, "CDISCPILOT01", "LB", "CDISC004", 116, "GGT", "Gamma Glutamyl Transferase", "CHEMISTRY", "10", "U/L", "5", "50", "10", 10.0, "U/L", 5.0, 50.0, "NORMAL", "", 7.0, "WEEK 6", "TREATMENT", "2013-11-19T13:22", 43], [658, "CDISCPILOT01", "LB", "CDISC004", 117, "GLUC", "Glucose", "CHEMISTRY", "107", "mg/dL", "50", "250", "5.93957", 5.93957, "mmol/L", 2.8, 13.9, "NORMAL", "", 7.0, "WEEK 6", "TREATMENT", "2013-11-19T13:22", 43], [659, "CDISCPILOT01", "LB", "CDISC004", 118, "HCT", "Hematocrit", "HEMATOLOGY", "39.0", "%", "34", "48", "0.39", 0.39, "", 0.33999999999999997, 0.48, "NORMAL", "", 7.0, "WEEK 6", "TREATMENT", "2013-11-19T13:22", 43], [660, "CDISCPILOT01", "LB", "CDISC004", 119, "HGB", "Hemoglobin", "HEMATOLOGY", "13.1", "g/dL", "11.5", "15.8", "8.12986", 8.12986, "mmol/L", 7.14, 9.809999999999999, "NORMAL", "", 7.0, "WEEK 6", "TREATMENT", "2013-11-19T13:22", 43], [661, "CDISCPILOT01", "LB", "CDISC004", 120, "K", "Potassium", "CHEMISTRY", "4.4", "mEq/L", "3.4", "5.4", "4.4", 4.3999999999999995, "mmol/L", 3.4, 5.3999999999999995, "NORMAL", "", 7.0, "WEEK 6", "TREATMENT", "2013-11-19T13:22", 43], [662, "CDISCPILOT01", "LB", "CDISC004", 121, "LYM", "Lymphocytes", "HEMATOLOGY", "1.68", "10^9/L", "0.8", "3", "1.68", 1.68, "10^9/L", 0.8, 3.0, "NORMAL", "", 7.0, "WEEK 6", "TREATMENT", "2013-11-19T13:22", 43], [663, "CDISCPILOT01", "LB", "CDISC004", 122, "MCH", "Ery. Mean Corpuscular Hemoglobin", "HEMATOLOGY", "28", "pg", "26", "34", "1.73768", 1.73768, "fmol", 1.6, 2.1, "NORMAL", "", 7.0, "WEEK 6", "TREATMENT", "2013-11-19T13:22", 43], [664, "CDISCPILOT01", "LB", "CDISC004", 123, "MCHC", "Ery. Mean Corpuscular HGB Concentration", "HEMATOLOGY", "34", "g/dL", "31", "38", "21.1004", 21.1004, "mmol/L", 19.0, 24.0, "NORMAL", "", 7.0, "WEEK 6", "TREATMENT", "2013-11-19T13:22", 43], [665, "CDISCPILOT01", "LB", "CDISC004", 124, "MCV", "Ery. Mean Corpuscular Volume", "HEMATOLOGY", "84", "fL", "80", "100", "84", 84.0, "fL", 80.0, 100.0, "NORMAL", "", 7.0, "WEEK 6", "TREATMENT", "2013-11-19T13:22", 43], [666, "CDISCPILOT01", "LB", "CDISC004", 125, "MONO", "Monocytes", "HEMATOLOGY", "0.35", "10^9/L", "0.12", "0.92", "0.35", 0.35, "10^9/L", 0.12, 0.92, "NORMAL", "", 7.0, "WEEK 6", "TREATMENT", "2013-11-19T13:22", 43], [667, "CDISCPILOT01", "LB", "CDISC004", 126, "SODIUM", "Sodium", "CHEMISTRY", "142", "mEq/L", "135", "145", "142", 142.0, "mmol/L", 135.0, 145.0, "NORMAL", "", 7.0, "WEEK 6", "TREATMENT", "2013-11-19T13:22", 43], [668, "CDISCPILOT01", "LB", "CDISC004", 127, "PHOS", "Phosphate", "CHEMISTRY", "3.6", "mg/dL", "2.2", "5.1", "1.16244", 1.16244, "mmol/L", 0.71, 1.65, "NORMAL", "", 7.0, "WEEK 6", "TREATMENT", "2013-11-19T13:22", 43], [669, "CDISCPILOT01", "LB", "CDISC004", 128, "PLAT", "Platelets", "HEMATOLOGY", "388", "10^9/L", "130", "394", "388", 388.0, "10^9/L", 130.0, 394.0, "NORMAL", "", 7.0, "WEEK 6", "TREATMENT", "2013-11-19T13:22", 43], [670, "CDISCPILOT01", "LB", "CDISC004", 129, "PROT", "Protein", "CHEMISTRY", "7.1", "g/dL", "6", "8", "71", 71.0, "g/L", 60.0, 80.0, "NORMAL", "", 7.0, "WEEK 6", "TREATMENT", "2013-11-19T13:22", 43], [671, "CDISCPILOT01", "LB", "CDISC004", 130, "RBC", "Erythrocytes", "HEMATOLOGY", "4.60", "10^12/L", "3.9", "5.5", "4.6", 4.6, "10^12/L", 3.9, 5.5, "NORMAL", "", 7.0, "WEEK 6", "TREATMENT", "2013-11-19T13:22", 43], [672, "CDISCPILOT01", "LB", "CDISC004", 131, "URATE", "Urate", "CHEMISTRY", "4.0", "mg/dL", "2.5", "7.5", "237.92", 237.92, "umol/L", 149.0, 446.0, "NORMAL", "", 7.0, "WEEK 6", "TREATMENT", "2013-11-19T13:22", 43], [673, "CDISCPILOT01", "LB", "CDISC004", 132, "WBC", "Leukocytes", "HEMATOLOGY", "7.20", "10^9/L", "3.8", "10.7", "7.2", 7.199999999999999, "10^9/L", 3.8, 10.7, "NORMAL", "", 7.0, "WEEK 6", "TREATMENT", "2013-11-19T13:22", 43], [674, "CDISCPILOT01", "LB", "CDISC004", 133, "ALB", "Albumin", "CHEMISTRY", "4.3", "g/dL", "3.3", "4.9", "43", 43.0, "g/L", 33.0, 49.0, "NORMAL", "", 8.0, "WEEK 8", "TREATMENT", "2013-12-03T12:27", 57], [675, "CDISCPILOT01", "LB", "CDISC004", 134, "ALP", "Alkaline Phosphatase", "CHEMISTRY", "62", "U/L", "35", "115", "62", 62.0, "U/L", 35.0, 115.0, "NORMAL", "", 8.0, "WEEK 8", "TREATMENT", "2013-12-03T12:27", 57], [676, "CDISCPILOT01", "LB", "CDISC004", 135, "ALT", "Alanine Aminotransferase", "CHEMISTRY", "7", "U/L", "6", "34", "7", 7.0, "U/L", 6.0, 34.0, "NORMAL", "", 8.0, "WEEK 8", "TREATMENT", "2013-12-03T12:27", 57], [677, "CDISCPILOT01", "LB", "CDISC004", 136, "AST", "Aspartate Aminotransferase", "CHEMISTRY", "16", "U/L", "9", "34", "16", 16.0, "U/L", 9.0, 34.0, "NORMAL", "", 8.0, "WEEK 8", "TREATMENT", "2013-12-03T12:27", 57], [678, "CDISCPILOT01", "LB", "CDISC004", 137, "BASO", "Basophils", "HEMATOLOGY", "0.11", "10^9/L", "0", "0.2", "0.11", 0.11, "10^9/L", 0.0, 0.2, "NORMAL", "", 8.0, "WEEK 8", "TREATMENT", "2013-12-03T12:27", 57], [679, "CDISCPILOT01", "LB", "CDISC004", 138, "BILI", "Bilirubin", "CHEMISTRY", "0.3", "mg/dL", "0.2", "1.2", "5.13", 5.13, "umol/L", 3.0, 21.0, "NORMAL", "", 8.0, "WEEK 8", "TREATMENT", "2013-12-03T12:27", 57], [680, "CDISCPILOT01", "LB", "CDISC004", 139, "UREAN", "Urea Nitrogen", "CHEMISTRY", "11", "mg/dL", "4", "24", "3.927", 3.927, "mmol/L", 1.4, 8.6, "NORMAL", "", 8.0, "WEEK 8", "TREATMENT", "2013-12-03T12:27", 57], [681, "CDISCPILOT01", "LB", "CDISC004", 140, "CA", "Calcium", "CHEMISTRY", "9.2", "mg/dL", "8.4", "10.3", "2.2954", 2.2954, "mmol/L", 2.1, 2.57, "NORMAL", "", 8.0, "WEEK 8", "TREATMENT", "2013-12-03T12:27", 57], [682, "CDISCPILOT01", "LB", "CDISC004", 141, "CHOL", "Cholesterol", "CHEMISTRY", "196", "mg/dL", "156", "300", "5.06856", 5.06856, "mmol/L", 4.029999999999999, 7.76, "NORMAL", "", 8.0, "WEEK 8", "TREATMENT", "2013-12-03T12:27", 57], [683, "CDISCPILOT01", "LB", "CDISC004", 142, "CK", "Creatine Kinase", "CHEMISTRY", "132", "U/L", "21", "169", "132", 132.0, "U/L", 21.0, 169.0, "NORMAL", "", 8.0, "WEEK 8", "TREATMENT", "2013-12-03T12:27", 57], [684, "CDISCPILOT01", "LB", "CDISC004", 143, "CL", "Chloride", "CHEMISTRY", "107", "mEq/L", "94", "112", "107", 107.0, "mmol/L", 94.0, 112.0, "NORMAL", "", 8.0, "WEEK 8", "TREATMENT", "2013-12-03T12:27", 57], [685, "CDISCPILOT01", "LB", "CDISC004", 144, "CREAT", "Creatinine", "CHEMISTRY", "0.9", "mg/dL", "0.7", "1.4", "79.56", 79.55999999999999, "umol/L", 62.0, 124.0, "NORMAL", "", 8.0, "WEEK 8", "TREATMENT", "2013-12-03T12:27", 57], [686, "CDISCPILOT01", "LB", "CDISC004", 145, "EOS", "Eosinophils", "HEMATOLOGY", "0.13", "10^9/L", "0", "0.57", "0.13", 0.13, "10^9/L", 0.0, 0.57, "NORMAL", "", 8.0, "WEEK 8", "TREATMENT", "2013-12-03T12:27", 57], [687, "CDISCPILOT01", "LB", "CDISC004", 146, "GGT", "Gamma Glutamyl Transferase", "CHEMISTRY", "9", "U/L", "5", "50", "9", 9.0, "U/L", 5.0, 50.0, "NORMAL", "", 8.0, "WEEK 8", "TREATMENT", "2013-12-03T12:27", 57], [688, "CDISCPILOT01", "LB", "CDISC004", 147, "GLUC", "Glucose", "CHEMISTRY", "94", "mg/dL", "50", "250", "5.21794", 5.21794, "mmol/L", 2.8, 13.9, "NORMAL", "", 8.0, "WEEK 8", "TREATMENT", "2013-12-03T12:27", 57], [689, "CDISCPILOT01", "LB", "CDISC004", 148, "HCT", "Hematocrit", "HEMATOLOGY", "41.0", "%", "34", "48", "0.41", 0.41, "", 0.33999999999999997, 0.48, "NORMAL", "", 8.0, "WEEK 8", "TREATMENT", "2013-12-03T12:27", 57], [690, "CDISCPILOT01", "LB", "CDISC004", 149, "HGB", "Hemoglobin", "HEMATOLOGY", "13.3", "g/dL", "11.5", "15.8", "8.25398", 8.253979999999999, "mmol/L", 7.14, 9.809999999999999, "NORMAL", "", 8.0, "WEEK 8", "TREATMENT", "2013-12-03T12:27", 57], [691, "CDISCPILOT01", "LB", "CDISC004", 150, "K", "Potassium", "CHEMISTRY", "4.6", "mEq/L", "3.4", "5.4", "4.6", 4.6, "mmol/L", 3.4, 5.3999999999999995, "NORMAL", "", 8.0, "WEEK 8", "TREATMENT", "2013-12-03T12:27", 57], [692, "CDISCPILOT01", "LB", "CDISC004", 151, "LYM", "Lymphocytes", "HEMATOLOGY", "1.39", "10^9/L", "0.8", "3", "1.39", 1.39, "10^9/L", 0.8, 3.0, "NORMAL", "", 8.0, "WEEK 8", "TREATMENT", "2013-12-03T12:27", 57], [693, "CDISCPILOT01", "LB", "CDISC004", 152, "MCH", "Ery. Mean Corpuscular Hemoglobin", "HEMATOLOGY", "28", "pg", "26", "34", "1.73768", 1.73768, "fmol", 1.6, 2.1, "NORMAL", "", 8.0, "WEEK 8", "TREATMENT", "2013-12-03T12:27", 57], [694, "CDISCPILOT01", "LB", "CDISC004", 153, "MCHC", "Ery. Mean Corpuscular HGB Concentration", "HEMATOLOGY", "32", "g/dL", "31", "38", "19.8592", 19.8592, "mmol/L", 19.0, 24.0, "NORMAL", "", 8.0, "WEEK 8", "TREATMENT", "2013-12-03T12:27", 57], [695, "CDISCPILOT01", "LB", "CDISC004", 154, "MCV", "Ery. Mean Corpuscular Volume", "HEMATOLOGY", "87", "fL", "80", "100", "87", 87.0, "fL", 80.0, 100.0, "NORMAL", "", 8.0, "WEEK 8", "TREATMENT", "2013-12-03T12:27", 57], [696, "CDISCPILOT01", "LB", "CDISC004", 155, "MONO", "Monocytes", "HEMATOLOGY", "0.40", "10^9/L", "0.12", "0.92", "0.4", 0.4, "10^9/L", 0.12, 0.92, "NORMAL", "", 8.0, "WEEK 8", "TREATMENT", "2013-12-03T12:27", 57], [697, "CDISCPILOT01", "LB", "CDISC004", 156, "SODIUM", "Sodium", "CHEMISTRY", "141", "mEq/L", "135", "145", "141", 141.0, "mmol/L", 135.0, 145.0, "NORMAL", "", 8.0, "WEEK 8", "TREATMENT", "2013-12-03T12:27", 57], [698, "CDISCPILOT01", "LB", "CDISC004", 157, "PHOS", "Phosphate", "CHEMISTRY", "4.0", "mg/dL", "2.2", "5.1", "1.2916", 1.2916, "mmol/L", 0.71, 1.65, "NORMAL", "", 8.0, "WEEK 8", "TREATMENT", "2013-12-03T12:27", 57], [699, "CDISCPILOT01", "LB", "CDISC004", 158, "PLAT", "Platelets", "HEMATOLOGY", "444", "10^9/L", "130", "394", "444", 444.0, "10^9/L", 130.0, 394.0, "HIGH", "", 8.0, "WEEK 8", "TREATMENT", "2013-12-03T12:27", 57], [700, "CDISCPILOT01", "LB", "CDISC004", 159, "PROT", "Protein", "CHEMISTRY", "6.9", "g/dL", "6", "8", "69", 69.0, "g/L", 60.0, 80.0, "NORMAL", "", 8.0, "WEEK 8", "TREATMENT", "2013-12-03T12:27", 57], [701, "CDISCPILOT01", "LB", "CDISC004", 160, "RBC", "Erythrocytes", "HEMATOLOGY", "4.80", "10^12/L", "3.9", "5.5", "4.8", 4.8, "10^12/L", 3.9, 5.5, "NORMAL", "", 8.0, "WEEK 8", "TREATMENT", "2013-12-03T12:27", 57], [702, "CDISCPILOT01", "LB", "CDISC004", 161, "URATE", "Urate", "CHEMISTRY", "4.6", "mg/dL", "2.5", "7.5", "273.608", 273.608, "umol/L", 149.0, 446.0, "NORMAL", "", 8.0, "WEEK 8", "TREATMENT", "2013-12-03T12:27", 57], [703, "CDISCPILOT01", "LB", "CDISC004", 162, "WBC", "Leukocytes", "HEMATOLOGY", "7.06", "10^9/L", "3.8", "10.7", "7.06", 7.06, "10^9/L", 3.8, 10.7, "NORMAL", "", 8.0, "WEEK 8", "TREATMENT", "2013-12-03T12:27", 57], [704, "CDISCPILOT01", "LB", "CDISC004", 163, "ALB", "Albumin", "CHEMISTRY", "4.4", "g/dL", "3.3", "4.9", "44", 44.0, "g/L", 33.0, 49.0, "NORMAL", "", 9.0, "WEEK 12", "TREATMENT", "2013-12-31T15:07", 85], [705, "CDISCPILOT01", "LB", "CDISC004", 164, "ALP", "Alkaline Phosphatase", "CHEMISTRY", "57", "U/L", "35", "115", "57", 57.0, "U/L", 35.0, 115.0, "NORMAL", "", 9.0, "WEEK 12", "TREATMENT", "2013-12-31T15:07", 85], [706, "CDISCPILOT01", "LB", "CDISC004", 165, "ALT", "Alanine Aminotransferase", "CHEMISTRY", "14", "U/L", "6", "34", "14", 14.0, "U/L", 6.0, 34.0, "NORMAL", "", 9.0, "WEEK 12", "TREATMENT", "2013-12-31T15:07", 85], [707, "CDISCPILOT01", "LB", "CDISC004", 166, "AST", "Aspartate Aminotransferase", "CHEMISTRY", "22", "U/L", "9", "34", "22", 22.0, "U/L", 9.0, 34.0, "NORMAL", "", 9.0, "WEEK 12", "TREATMENT", "2013-12-31T15:07", 85], [708, "CDISCPILOT01", "LB", "CDISC004", 167, "BASO", "Basophils", "HEMATOLOGY", "0.06", "10^9/L", "0", "0.2", "0.06", 0.06, "10^9/L", 0.0, 0.2, "NORMAL", "", 9.0, "WEEK 12", "TREATMENT", "2013-12-31T15:07", 85], [709, "CDISCPILOT01", "LB", "CDISC004", 168, "BILI", "Bilirubin", "CHEMISTRY", "0.5", "mg/dL", "0.2", "1.2", "8.55", 8.549999999999999, "umol/L", 3.0, 21.0, "NORMAL", "", 9.0, "WEEK 12", "TREATMENT", "2013-12-31T15:07", 85], [710, "CDISCPILOT01", "LB", "CDISC004", 169, "UREAN", "Urea Nitrogen", "CHEMISTRY", "13", "mg/dL", "4", "24", "4.641", 4.641, "mmol/L", 1.4, 8.6, "NORMAL", "", 9.0, "WEEK 12", "TREATMENT", "2013-12-31T15:07", 85], [711, "CDISCPILOT01", "LB", "CDISC004", 170, "CA", "Calcium", "CHEMISTRY", "9.3", "mg/dL", "8.4", "10.3", "2.32035", 2.32035, "mmol/L", 2.1, 2.57, "NORMAL", "", 9.0, "WEEK 12", "TREATMENT", "2013-12-31T15:07", 85], [712, "CDISCPILOT01", "LB", "CDISC004", 171, "CHOL", "Cholesterol", "CHEMISTRY", "205", "mg/dL", "156", "300", "5.3013", 5.3012999999999995, "mmol/L", 4.029999999999999, 7.76, "NORMAL", "", 9.0, "WEEK 12", "TREATMENT", "2013-12-31T15:07", 85], [713, "CDISCPILOT01", "LB", "CDISC004", 172, "CK", "Creatine Kinase", "CHEMISTRY", "167", "U/L", "21", "169", "167", 167.0, "U/L", 21.0, 169.0, "NORMAL", "", 9.0, "WEEK 12", "TREATMENT", "2013-12-31T15:07", 85], [714, "CDISCPILOT01", "LB", "CDISC004", 173, "CL", "Chloride", "CHEMISTRY", "103", "mEq/L", "94", "112", "103", 103.0, "mmol/L", 94.0, 112.0, "NORMAL", "", 9.0, "WEEK 12", "TREATMENT", "2013-12-31T15:07", 85], [715, "CDISCPILOT01", "LB", "CDISC004", 174, "COLOR", "Color", "URINALYSIS", "NORMAL", "", "", "", "NORMAL", null, "", null, null, "NORMAL", "", 9.0, "WEEK 12", "TREATMENT", "2013-12-31T15:07", 85], [716, "CDISCPILOT01", "LB", "CDISC004", 175, "CREAT", "Creatinine", "CHEMISTRY", "1.1", "mg/dL", "0.7", "1.4", "97.24", 97.24, "umol/L", 62.0, 124.0, "NORMAL", "", 9.0, "WEEK 12", "TREATMENT", "2013-12-31T15:07", 85], [717, "CDISCPILOT01", "LB", "CDISC004", 176, "EOS", "Eosinophils", "HEMATOLOGY", "0.15", "10^9/L", "0", "0.57", "0.15", 0.15, "10^9/L", 0.0, 0.57, "NORMAL", "", 9.0, "WEEK 12", "TREATMENT", "2013-12-31T15:07", 85], [718, "CDISCPILOT01", "LB", "CDISC004", 177, "GGT", "Gamma Glutamyl Transferase", "CHEMISTRY", "10", "U/L", "5", "50", "10", 10.0, "U/L", 5.0, 50.0, "NORMAL", "", 9.0, "WEEK 12", "TREATMENT", "2013-12-31T15:07", 85], [719, "CDISCPILOT01", "LB", "CDISC004", 178, "GLUC", "Glucose", "CHEMISTRY", "117", "mg/dL", "50", "250", "6.49467", 6.494669999999999, "mmol/L", 2.8, 13.9, "NORMAL", "", 9.0, "WEEK 12", "TREATMENT", "2013-12-31T15:07", 85], [720, "CDISCPILOT01", "LB", "CDISC004", 179, "HCT", "Hematocrit", "HEMATOLOGY", "43.0", "%", "34", "48", "0.43", 0.43, "", 0.33999999999999997, 0.48, "NORMAL", "", 9.0, "WEEK 12", "TREATMENT", "2013-12-31T15:07", 85], [721, "CDISCPILOT01", "LB", "CDISC004", 180, "HGB", "Hemoglobin", "HEMATOLOGY", "14.1", "g/dL", "11.5", "15.8", "8.75046", 8.750459999999999, "mmol/L", 7.14, 9.809999999999999, "NORMAL", "", 9.0, "WEEK 12", "TREATMENT", "2013-12-31T15:07", 85], [722, "CDISCPILOT01", "LB", "CDISC004", 181, "K", "Potassium", "CHEMISTRY", "4.1", "mEq/L", "3.4", "5.4", "4.1", 4.1, "mmol/L", 3.4, 5.3999999999999995, "NORMAL", "", 9.0, "WEEK 12", "TREATMENT", "2013-12-31T15:07", 85], [723, "CDISCPILOT01", "LB", "CDISC004", 182, "KETONES", "Ketones", "URINALYSIS", "0", "", "", "", "0", 0.0, "", null, null, "NORMAL", "", 9.0, "WEEK 12", "TREATMENT", "2013-12-31T15:07", 85], [724, "CDISCPILOT01", "LB", "CDISC004", 183, "LYM", "Lymphocytes", "HEMATOLOGY", "1.68", "10^9/L", "0.8", "3", "1.68", 1.68, "10^9/L", 0.8, 3.0, "NORMAL", "", 9.0, "WEEK 12", "TREATMENT", "2013-12-31T15:07", 85], [725, "CDISCPILOT01", "LB", "CDISC004", 184, "MCH", "Ery. Mean Corpuscular Hemoglobin", "HEMATOLOGY", "29", "pg", "26", "34", "1.79974", 1.79974, "fmol", 1.6, 2.1, "NORMAL", "", 9.0, "WEEK 12", "TREATMENT", "2013-12-31T15:07", 85], [726, "CDISCPILOT01", "LB", "CDISC004", 185, "MCHC", "Ery. Mean Corpuscular HGB Concentration", "HEMATOLOGY", "33", "g/dL", "31", "38", "20.4798", 20.4798, "mmol/L", 19.0, 24.0, "NORMAL", "", 9.0, "WEEK 12", "TREATMENT", "2013-12-31T15:07", 85], [727, "CDISCPILOT01", "LB", "CDISC004", 186, "MCV", "Ery. Mean Corpuscular Volume", "HEMATOLOGY", "87", "fL", "80", "100", "87", 87.0, "fL", 80.0, 100.0, "NORMAL", "", 9.0, "WEEK 12", "TREATMENT", "2013-12-31T15:07", 85], [728, "CDISCPILOT01", "LB", "CDISC004", 187, "MONO", "Monocytes", "HEMATOLOGY", "0.44", "10^9/L", "0.12", "0.92", "0.44", 0.44, "10^9/L", 0.12, 0.92, "NORMAL", "", 9.0, "WEEK 12", "TREATMENT", "2013-12-31T15:07", 85], [729, "CDISCPILOT01", "LB", "CDISC004", 188, "SODIUM", "Sodium", "CHEMISTRY", "140", "mEq/L", "135", "145", "140", 140.0, "mmol/L", 135.0, 145.0, "NORMAL", "", 9.0, "WEEK 12", "TREATMENT", "2013-12-31T15:07", 85], [730, "CDISCPILOT01", "LB", "CDISC004", 189, "PH", "pH", "URINALYSIS", "5", "", "5", "8", "5", 5.0, "", 5.0, 8.0, "NORMAL", "", 9.0, "WEEK 12", "TREATMENT", "2013-12-31T15:07", 85], [731, "CDISCPILOT01", "LB", "CDISC004", 190, "PHOS", "Phosphate", "CHEMISTRY", "4.1", "mg/dL", "2.2", "5.1", "1.32389", 1.32389, "mmol/L", 0.71, 1.65, "NORMAL", "", 9.0, "WEEK 12", "TREATMENT", "2013-12-31T15:07", 85], [732, "CDISCPILOT01", "LB", "CDISC004", 191, "PLAT", "Platelets", "HEMATOLOGY", "406", "10^9/L", "130", "394", "406", 406.0, "10^9/L", 130.0, 394.0, "HIGH", "", 9.0, "WEEK 12", "TREATMENT", "2013-12-31T15:07", 85], [733, "CDISCPILOT01", "LB", "CDISC004", 192, "PROT", "Protein", "CHEMISTRY", "7.7", "g/dL", "6", "8", "77", 77.0, "g/L", 60.0, 80.0, "NORMAL", "", 9.0, "WEEK 12", "TREATMENT", "2013-12-31T15:07", 85], [734, "CDISCPILOT01", "LB", "CDISC004", 193, "RBC", "Erythrocytes", "HEMATOLOGY", "4.90", "10^12/L", "3.9", "5.5", "4.9", 4.8999999999999995, "10^12/L", 3.9, 5.5, "NORMAL", "", 9.0, "WEEK 12", "TREATMENT", "2013-12-31T15:07", 85], [735, "CDISCPILOT01", "LB", "CDISC004", 194, "SPGRAV", "Specific Gravity", "URINALYSIS", "1.007", "", "1.006", "1.03", "1.007", 1.007, "", 1.006, 1.03, "NORMAL", "", 9.0, "WEEK 12", "TREATMENT", "2013-12-31T15:07", 85], [736, "CDISCPILOT01", "LB", "CDISC004", 195, "URATE", "Urate", "CHEMISTRY", "4.4", "mg/dL", "2.5", "7.5", "261.712", 261.712, "umol/L", 149.0, 446.0, "NORMAL", "", 9.0, "WEEK 12", "TREATMENT", "2013-12-31T15:07", 85], [737, "CDISCPILOT01", "LB", "CDISC004", 196, "UROBIL", "Urobilinogen", "URINALYSIS", "0", "", "", "", "0", 0.0, "", null, null, "NORMAL", "", 9.0, "WEEK 12", "TREATMENT", "2013-12-31T15:07", 85], [738, "CDISCPILOT01", "LB", "CDISC004", 197, "WBC", "Leukocytes", "HEMATOLOGY", "7.94", "10^9/L", "3.8", "10.7", "7.94", 7.94, "10^9/L", 3.8, 10.7, "NORMAL", "", 9.0, "WEEK 12", "TREATMENT", "2013-12-31T15:07", 85], [739, "CDISCPILOT01", "LB", "CDISC004", 198, "ALB", "Albumin", "CHEMISTRY", "4.5", "g/dL", "3.3", "4.9", "45", 45.0, "g/L", 33.0, 49.0, "NORMAL", "", 10.0, "WEEK 16", "TREATMENT", "2014-01-27T11:49", 112], [740, "CDISCPILOT01", "LB", "CDISC004", 199, "ALP", "Alkaline Phosphatase", "CHEMISTRY", "59", "U/L", "35", "115", "59", 59.0, "U/L", 35.0, 115.0, "NORMAL", "", 10.0, "WEEK 16", "TREATMENT", "2014-01-27T11:49", 112], [741, "CDISCPILOT01", "LB", "CDISC004", 200, "ALT", "Alanine Aminotransferase", "CHEMISTRY", "13", "U/L", "6", "34", "13", 13.0, "U/L", 6.0, 34.0, "NORMAL", "", 10.0, "WEEK 16", "TREATMENT", "2014-01-27T11:49", 112], [742, "CDISCPILOT01", "LB", "CDISC004", 201, "AST", "Aspartate Aminotransferase", "CHEMISTRY", "24", "U/L", "9", "34", "24", 24.0, "U/L", 9.0, 34.0, "NORMAL", "", 10.0, "WEEK 16", "TREATMENT", "2014-01-27T11:49", 112], [743, "CDISCPILOT01", "LB", "CDISC004", 202, "BASO", "Basophils", "HEMATOLOGY", "0.04", "10^9/L", "0", "0.2", "0.04", 0.039999999999999994, "10^9/L", 0.0, 0.2, "NORMAL", "", 10.0, "WEEK 16", "TREATMENT", "2014-01-27T11:49", 112], [744, "CDISCPILOT01", "LB", "CDISC004", 203, "BILI", "Bilirubin", "CHEMISTRY", "0.5", "mg/dL", "0.2", "1.2", "8.55", 8.549999999999999, "umol/L", 3.0, 21.0, "NORMAL", "", 10.0, "WEEK 16", "TREATMENT", "2014-01-27T11:49", 112], [745, "CDISCPILOT01", "LB", "CDISC004", 204, "UREAN", "Urea Nitrogen", "CHEMISTRY", "14", "mg/dL", "4", "24", "4.998", 4.997999999999999, "mmol/L", 1.4, 8.6, "NORMAL", "", 10.0, "WEEK 16", "TREATMENT", "2014-01-27T11:49", 112], [746, "CDISCPILOT01", "LB", "CDISC004", 205, "CA", "Calcium", "CHEMISTRY", "9.8", "mg/dL", "8.4", "10.3", "2.4451", 2.4451, "mmol/L", 2.1, 2.57, "NORMAL", "", 10.0, "WEEK 16", "TREATMENT", "2014-01-27T11:49", 112], [747, "CDISCPILOT01", "LB", "CDISC004", 206, "CHOL", "Cholesterol", "CHEMISTRY", "211", "mg/dL", "156", "300", "5.45646", 5.45646, "mmol/L", 4.029999999999999, 7.76, "NORMAL", "", 10.0, "WEEK 16", "TREATMENT", "2014-01-27T11:49", 112], [748, "CDISCPILOT01", "LB", "CDISC004", 207, "CK", "Creatine Kinase", "CHEMISTRY", "176", "U/L", "21", "169", "176", 176.0, "U/L", 21.0, 169.0, "HIGH", "", 10.0, "WEEK 16", "TREATMENT", "2014-01-27T11:49", 112], [749, "CDISCPILOT01", "LB", "CDISC004", 208, "CL", "Chloride", "CHEMISTRY", "108", "mEq/L", "94", "112", "108", 108.0, "mmol/L", 94.0, 112.0, "NORMAL", "", 10.0, "WEEK 16", "TREATMENT", "2014-01-27T11:49", 112], [750, "CDISCPILOT01", "LB", "CDISC004", 209, "CREAT", "Creatinine", "CHEMISTRY", "1.0", "mg/dL", "0.7", "1.4", "88.4", 88.39999999999998, "umol/L", 62.0, 124.0, "NORMAL", "", 10.0, "WEEK 16", "TREATMENT", "2014-01-27T11:49", 112], [751, "CDISCPILOT01", "LB", "CDISC004", 210, "EOS", "Eosinophils", "HEMATOLOGY", "0.05", "10^9/L", "0", "0.57", "0.05", 0.05, "10^9/L", 0.0, 0.57, "NORMAL", "", 10.0, "WEEK 16", "TREATMENT", "2014-01-27T11:49", 112], [752, "CDISCPILOT01", "LB", "CDISC004", 211, "GGT", "Gamma Glutamyl Transferase", "CHEMISTRY", "9", "U/L", "5", "50", "9", 9.0, "U/L", 5.0, 50.0, "NORMAL", "", 10.0, "WEEK 16", "TREATMENT", "2014-01-27T11:49", 112], [753, "CDISCPILOT01", "LB", "CDISC004", 212, "GLUC", "Glucose", "CHEMISTRY", "88", "mg/dL", "50", "250", "4.88488", 4.88488, "mmol/L", 2.8, 13.9, "NORMAL", "", 10.0, "WEEK 16", "TREATMENT", "2014-01-27T11:49", 112], [754, "CDISCPILOT01", "LB", "CDISC004", 213, "HCT", "Hematocrit", "HEMATOLOGY", "43.0", "%", "34", "48", "0.43", 0.43, "", 0.33999999999999997, 0.48, "NORMAL", "", 10.0, "WEEK 16", "TREATMENT", "2014-01-27T11:49", 112], [755, "CDISCPILOT01", "LB", "CDISC004", 214, "HGB", "Hemoglobin", "HEMATOLOGY", "13.8", "g/dL", "11.5", "15.8", "8.56428", 8.564279999999998, "mmol/L", 7.14, 9.809999999999999, "NORMAL", "", 10.0, "WEEK 16", "TREATMENT", "2014-01-27T11:49", 112], [756, "CDISCPILOT01", "LB", "CDISC004", 215, "K", "Potassium", "CHEMISTRY", "4.4", "mEq/L", "3.4", "5.4", "4.4", 4.3999999999999995, "mmol/L", 3.4, 5.3999999999999995, "NORMAL", "", 10.0, "WEEK 16", "TREATMENT", "2014-01-27T11:49", 112], [757, "CDISCPILOT01", "LB", "CDISC004", 216, "LYM", "Lymphocytes", "HEMATOLOGY", "1.25", "10^9/L", "0.8", "3", "1.25", 1.25, "10^9/L", 0.8, 3.0, "NORMAL", "", 10.0, "WEEK 16", "TREATMENT", "2014-01-27T11:49", 112], [758, "CDISCPILOT01", "LB", "CDISC004", 217, "MCH", "Ery. Mean Corpuscular Hemoglobin", "HEMATOLOGY", "27", "pg", "26", "34", "1.67562", 1.67562, "fmol", 1.6, 2.1, "NORMAL", "", 10.0, "WEEK 16", "TREATMENT", "2014-01-27T11:49", 112], [759, "CDISCPILOT01", "LB", "CDISC004", 218, "MCHC", "Ery. Mean Corpuscular HGB Concentration", "HEMATOLOGY", "32", "g/dL", "31", "38", "19.8592", 19.8592, "mmol/L", 19.0, 24.0, "NORMAL", "", 10.0, "WEEK 16", "TREATMENT", "2014-01-27T11:49", 112], [760, "CDISCPILOT01", "LB", "CDISC004", 219, "MCV", "Ery. Mean Corpuscular Volume", "HEMATOLOGY", "84", "fL", "80", "100", "84", 84.0, "fL", 80.0, 100.0, "NORMAL", "", 10.0, "WEEK 16", "TREATMENT", "2014-01-27T11:49", 112], [761, "CDISCPILOT01", "LB", "CDISC004", 220, "MONO", "Monocytes", "HEMATOLOGY", "0.50", "10^9/L", "0.12", "0.92", "0.5", 0.5, "10^9/L", 0.12, 0.92, "NORMAL", "", 10.0, "WEEK 16", "TREATMENT", "2014-01-27T11:49", 112], [762, "CDISCPILOT01", "LB", "CDISC004", 221, "SODIUM", "Sodium", "CHEMISTRY", "141", "mEq/L", "135", "145", "141", 141.0, "mmol/L", 135.0, 145.0, "NORMAL", "", 10.0, "WEEK 16", "TREATMENT", "2014-01-27T11:49", 112], [763, "CDISCPILOT01", "LB", "CDISC004", 222, "PHOS", "Phosphate", "CHEMISTRY", "3.9", "mg/dL", "2.2", "5.1", "1.25931", 1.25931, "mmol/L", 0.71, 1.65, "NORMAL", "", 10.0, "WEEK 16", "TREATMENT", "2014-01-27T11:49", 112], [764, "CDISCPILOT01", "LB", "CDISC004", 223, "PLAT", "Platelets", "HEMATOLOGY", "362", "10^9/L", "130", "394", "362", 362.0, "10^9/L", 130.0, 394.0, "NORMAL", "", 10.0, "WEEK 16", "TREATMENT", "2014-01-27T11:49", 112], [765, "CDISCPILOT01", "LB", "CDISC004", 224, "PROT", "Protein", "CHEMISTRY", "7.4", "g/dL", "6", "8", "74", 74.0, "g/L", 60.0, 80.0, "NORMAL", "", 10.0, "WEEK 16", "TREATMENT", "2014-01-27T11:49", 112], [766, "CDISCPILOT01", "LB", "CDISC004", 225, "RBC", "Erythrocytes", "HEMATOLOGY", "5.10", "10^12/L", "3.9", "5.5", "5.1", 5.1, "10^12/L", 3.9, 5.5, "NORMAL", "", 10.0, "WEEK 16", "TREATMENT", "2014-01-27T11:49", 112], [767, "CDISCPILOT01", "LB", "CDISC004", 226, "URATE", "Urate", "CHEMISTRY", "4.7", "mg/dL", "2.5", "7.5", "279.556", 279.556, "umol/L", 149.0, 446.0, "NORMAL", "", 10.0, "WEEK 16", "TREATMENT", "2014-01-27T11:49", 112], [768, "CDISCPILOT01", "LB", "CDISC004", 227, "WBC", "Leukocytes", "HEMATOLOGY", "7.58", "10^9/L", "3.8", "10.7", "7.58", 7.58, "10^9/L", 3.8, 10.7, "NORMAL", "", 10.0, "WEEK 16", "TREATMENT", "2014-01-27T11:49", 112], [769, "CDISCPILOT01", "LB", "CDISC004", 228, "ALB", "Albumin", "CHEMISTRY", "4.3", "g/dL", "3.3", "4.9", "43", 43.0, "g/L", 33.0, 49.0, "NORMAL", "", 11.0, "WEEK 20", "TREATMENT", "2014-02-25T08:44", 141], [770, "CDISCPILOT01", "LB", "CDISC004", 229, "ALP", "Alkaline Phosphatase", "CHEMISTRY", "56", "U/L", "35", "115", "56", 56.0, "U/L", 35.0, 115.0, "NORMAL", "", 11.0, "WEEK 20", "TREATMENT", "2014-02-25T08:44", 141], [771, "CDISCPILOT01", "LB", "CDISC004", 230, "ALT", "Alanine Aminotransferase", "CHEMISTRY", "13", "U/L", "6", "34", "13", 13.0, "U/L", 6.0, 34.0, "NORMAL", "", 11.0, "WEEK 20", "TREATMENT", "2014-02-25T08:44", 141], [772, "CDISCPILOT01", "LB", "CDISC004", 231, "AST", "Aspartate Aminotransferase", "CHEMISTRY", "22", "U/L", "9", "34", "22", 22.0, "U/L", 9.0, 34.0, "NORMAL", "", 11.0, "WEEK 20", "TREATMENT", "2014-02-25T08:44", 141], [773, "CDISCPILOT01", "LB", "CDISC004", 232, "BASO", "Basophils", "HEMATOLOGY", "0.07", "10^9/L", "0", "0.2", "0.07", 0.07, "10^9/L", 0.0, 0.2, "NORMAL", "", 11.0, "WEEK 20", "TREATMENT", "2014-02-25T08:44", 141], [774, "CDISCPILOT01", "LB", "CDISC004", 233, "BILI", "Bilirubin", "CHEMISTRY", "0.4", "mg/dL", "0.2", "1.2", "6.84", 6.84, "umol/L", 3.0, 21.0, "NORMAL", "", 11.0, "WEEK 20", "TREATMENT", "2014-02-25T08:44", 141], [775, "CDISCPILOT01", "LB", "CDISC004", 234, "UREAN", "Urea Nitrogen", "CHEMISTRY", "11", "mg/dL", "4", "24", "3.927", 3.927, "mmol/L", 1.4, 8.6, "NORMAL", "", 11.0, "WEEK 20", "TREATMENT", "2014-02-25T08:44", 141], [776, "CDISCPILOT01", "LB", "CDISC004", 235, "CA", "Calcium", "CHEMISTRY", "9.5", "mg/dL", "8.4", "10.3", "2.37025", 2.37025, "mmol/L", 2.1, 2.57, "NORMAL", "", 11.0, "WEEK 20", "TREATMENT", "2014-02-25T08:44", 141], [777, "CDISCPILOT01", "LB", "CDISC004", 236, "CHOL", "Cholesterol", "CHEMISTRY", "208", "mg/dL", "156", "300", "5.37888", 5.37888, "mmol/L", 4.029999999999999, 7.76, "NORMAL", "", 11.0, "WEEK 20", "TREATMENT", "2014-02-25T08:44", 141], [778, "CDISCPILOT01", "LB", "CDISC004", 237, "CK", "Creatine Kinase", "CHEMISTRY", "155", "U/L", "21", "169", "155", 155.0, "U/L", 21.0, 169.0, "NORMAL", "", 11.0, "WEEK 20", "TREATMENT", "2014-02-25T08:44", 141], [779, "CDISCPILOT01", "LB", "CDISC004", 238, "CL", "Chloride", "CHEMISTRY", "105", "mEq/L", "94", "112", "105", 105.0, "mmol/L", 94.0, 112.0, "NORMAL", "", 11.0, "WEEK 20", "TREATMENT", "2014-02-25T08:44", 141], [780, "CDISCPILOT01", "LB", "CDISC004", 239, "CREAT", "Creatinine", "CHEMISTRY", "1.0", "mg/dL", "0.7", "1.4", "88.4", 88.39999999999998, "umol/L", 62.0, 124.0, "NORMAL", "", 11.0, "WEEK 20", "TREATMENT", "2014-02-25T08:44", 141], [781, "CDISCPILOT01", "LB", "CDISC004", 240, "EOS", "Eosinophils", "HEMATOLOGY", "0.12", "10^9/L", "0", "0.57", "0.12", 0.12, "10^9/L", 0.0, 0.57, "NORMAL", "", 11.0, "WEEK 20", "TREATMENT", "2014-02-25T08:44", 141], [782, "CDISCPILOT01", "LB", "CDISC004", 241, "GGT", "Gamma Glutamyl Transferase", "CHEMISTRY", "8", "U/L", "5", "50", "8", 8.0, "U/L", 5.0, 50.0, "NORMAL", "", 11.0, "WEEK 20", "TREATMENT", "2014-02-25T08:44", 141], [783, "CDISCPILOT01", "LB", "CDISC004", 242, "GLUC", "Glucose", "CHEMISTRY", "97", "mg/dL", "50", "250", "5.38447", 5.384469999999999, "mmol/L", 2.8, 13.9, "NORMAL", "", 11.0, "WEEK 20", "TREATMENT", "2014-02-25T08:44", 141], [784, "CDISCPILOT01", "LB", "CDISC004", 243, "HCT", "Hematocrit", "HEMATOLOGY", "45.0", "%", "34", "48", "0.45", 0.45, "", 0.33999999999999997, 0.48, "NORMAL", "", 11.0, "WEEK 20", "TREATMENT", "2014-02-25T08:44", 141], [785, "CDISCPILOT01", "LB", "CDISC004", 244, "HGB", "Hemoglobin", "HEMATOLOGY", "14.4", "g/dL", "11.5", "15.8", "8.93664", 8.936639999999999, "mmol/L", 7.14, 9.809999999999999, "NORMAL", "", 11.0, "WEEK 20", "TREATMENT", "2014-02-25T08:44", 141], [786, "CDISCPILOT01", "LB", "CDISC004", 245, "K", "Potassium", "CHEMISTRY", "4.8", "mEq/L", "3.4", "5.4", "4.8", 4.8, "mmol/L", 3.4, 5.3999999999999995, "NORMAL", "", 11.0, "WEEK 20", "TREATMENT", "2014-02-25T08:44", 141], [787, "CDISCPILOT01", "LB", "CDISC004", 246, "LYM", "Lymphocytes", "HEMATOLOGY", "1.27", "10^9/L", "0.8", "3", "1.27", 1.27, "10^9/L", 0.8, 3.0, "NORMAL", "", 11.0, "WEEK 20", "TREATMENT", "2014-02-25T08:44", 141], [788, "CDISCPILOT01", "LB", "CDISC004", 247, "MCH", "Ery. Mean Corpuscular Hemoglobin", "HEMATOLOGY", "28", "pg", "26", "34", "1.73768", 1.73768, "fmol", 1.6, 2.1, "NORMAL", "", 11.0, "WEEK 20", "TREATMENT", "2014-02-25T08:44", 141], [789, "CDISCPILOT01", "LB", "CDISC004", 248, "MCHC", "Ery. Mean Corpuscular HGB Concentration", "HEMATOLOGY", "32", "g/dL", "31", "38", "19.8592", 19.8592, "mmol/L", 19.0, 24.0, "NORMAL", "", 11.0, "WEEK 20", "TREATMENT", "2014-02-25T08:44", 141], [790, "CDISCPILOT01", "LB", "CDISC004", 249, "MCV", "Ery. Mean Corpuscular Volume", "HEMATOLOGY", "87", "fL", "80", "100", "87", 87.0, "fL", 80.0, 100.0, "NORMAL", "", 11.0, "WEEK 20", "TREATMENT", "2014-02-25T08:44", 141], [791, "CDISCPILOT01", "LB", "CDISC004", 250, "MONO", "Monocytes", "HEMATOLOGY", "0.49", "10^9/L", "0.12", "0.92", "0.49", 0.49, "10^9/L", 0.12, 0.92, "NORMAL", "", 11.0, "WEEK 20", "TREATMENT", "2014-02-25T08:44", 141], [792, "CDISCPILOT01", "LB", "CDISC004", 251, "SODIUM", "Sodium", "CHEMISTRY", "144", "mEq/L", "135", "145", "144", 144.0, "mmol/L", 135.0, 145.0, "NORMAL", "", 11.0, "WEEK 20", "TREATMENT", "2014-02-25T08:44", 141], [793, "CDISCPILOT01", "LB", "CDISC004", 252, "PHOS", "Phosphate", "CHEMISTRY", "3.8", "mg/dL", "2.2", "5.1", "1.22702", 1.22702, "mmol/L", 0.71, 1.65, "NORMAL", "", 11.0, "WEEK 20", "TREATMENT", "2014-02-25T08:44", 141], [794, "CDISCPILOT01", "LB", "CDISC004", 253, "PLAT", "Platelets", "HEMATOLOGY", "399", "10^9/L", "130", "394", "399", 399.0, "10^9/L", 130.0, 394.0, "HIGH", "", 11.0, "WEEK 20", "TREATMENT", "2014-02-25T08:44", 141], [795, "CDISCPILOT01", "LB", "CDISC004", 254, "PROT", "Protein", "CHEMISTRY", "7.3", "g/dL", "6", "8", "73", 73.0, "g/L", 60.0, 80.0, "NORMAL", "", 11.0, "WEEK 20", "TREATMENT", "2014-02-25T08:44", 141], [796, "CDISCPILOT01", "LB", "CDISC004", 255, "RBC", "Erythrocytes", "HEMATOLOGY", "5.20", "10^12/L", "3.9", "5.5", "5.2", 5.199999999999999, "10^12/L", 3.9, 5.5, "NORMAL", "", 11.0, "WEEK 20", "TREATMENT", "2014-02-25T08:44", 141], [797, "CDISCPILOT01", "LB", "CDISC004", 256, "URATE", "Urate", "CHEMISTRY", "4.7", "mg/dL", "2.5", "7.5", "279.556", 279.556, "umol/L", 149.0, 446.0, "NORMAL", "", 11.0, "WEEK 20", "TREATMENT", "2014-02-25T08:44", 141], [798, "CDISCPILOT01", "LB", "CDISC004", 257, "WBC", "Leukocytes", "HEMATOLOGY", "6.55", "10^9/L", "3.8", "10.7", "6.55", 6.55, "10^9/L", 3.8, 10.7, "NORMAL", "", 11.0, "WEEK 20", "TREATMENT", "2014-02-25T08:44", 141], [799, "CDISCPILOT01", "LB", "CDISC004", 258, "ALB", "Albumin", "CHEMISTRY", "4.5", "g/dL", "3.3", "4.9", "45", 45.0, "g/L", 33.0, 49.0, "NORMAL", "", 12.0, "WEEK 24", "TREATMENT", "2014-03-18T14:12", 162], [800, "CDISCPILOT01", "LB", "CDISC004", 259, "ALP", "Alkaline Phosphatase", "CHEMISTRY", "58", "U/L", "35", "115", "58", 58.0, "U/L", 35.0, 115.0, "NORMAL", "", 12.0, "WEEK 24", "TREATMENT", "2014-03-18T14:12", 162], [801, "CDISCPILOT01", "LB", "CDISC004", 260, "ALT", "Alanine Aminotransferase", "CHEMISTRY", "25", "U/L", "6", "34", "25", 25.0, "U/L", 6.0, 34.0, "NORMAL", "", 12.0, "WEEK 24", "TREATMENT", "2014-03-18T14:12", 162], [802, "CDISCPILOT01", "LB", "CDISC004", 261, "AST", "Aspartate Aminotransferase", "CHEMISTRY", "46", "U/L", "9", "34", "46", 46.0, "U/L", 9.0, 34.0, "HIGH", "", 12.0, "WEEK 24", "TREATMENT", "2014-03-18T14:12", 162], [803, "CDISCPILOT01", "LB", "CDISC004", 262, "BASO", "Basophils", "HEMATOLOGY", "0.08", "10^9/L", "0", "0.2", "0.08", 0.08, "10^9/L", 0.0, 0.2, "NORMAL", "", 12.0, "WEEK 24", "TREATMENT", "2014-03-18T14:12", 162], [804, "CDISCPILOT01", "LB", "CDISC004", 263, "BILI", "Bilirubin", "CHEMISTRY", "0.5", "mg/dL", "0.2", "1.2", "8.55", 8.549999999999999, "umol/L", 3.0, 21.0, "NORMAL", "", 12.0, "WEEK 24", "TREATMENT", "2014-03-18T14:12", 162], [805, "CDISCPILOT01", "LB", "CDISC004", 264, "UREAN", "Urea Nitrogen", "CHEMISTRY", "11", "mg/dL", "4", "24", "3.927", 3.927, "mmol/L", 1.4, 8.6, "NORMAL", "", 12.0, "WEEK 24", "TREATMENT", "2014-03-18T14:12", 162], [806, "CDISCPILOT01", "LB", "CDISC004", 265, "CA", "Calcium", "CHEMISTRY", "9.4", "mg/dL", "8.4", "10.3", "2.3453", 2.3453, "mmol/L", 2.1, 2.57, "NORMAL", "", 12.0, "WEEK 24", "TREATMENT", "2014-03-18T14:12", 162], [807, "CDISCPILOT01", "LB", "CDISC004", 266, "CHOL", "Cholesterol", "CHEMISTRY", "184", "mg/dL", "156", "300", "4.75824", 4.75824, "mmol/L", 4.029999999999999, 7.76, "NORMAL", "", 12.0, "WEEK 24", "TREATMENT", "2014-03-18T14:12", 162], [808, "CDISCPILOT01", "LB", "CDISC004", 267, "CK", "Creatine Kinase", "CHEMISTRY", "1556", "U/L", "21", "169", "1556", 1556.0, "U/L", 21.0, 169.0, "HIGH", "", 12.0, "WEEK 24", "TREATMENT", "2014-03-18T14:12", 162], [809, "CDISCPILOT01", "LB", "CDISC004", 268, "CL", "Chloride", "CHEMISTRY", "103", "mEq/L", "94", "112", "103", 103.0, "mmol/L", 94.0, 112.0, "NORMAL", "", 12.0, "WEEK 24", "TREATMENT", "2014-03-18T14:12", 162], [810, "CDISCPILOT01", "LB", "CDISC004", 269, "COLOR", "Color", "URINALYSIS", "NORMAL", "", "", "", "NORMAL", null, "", null, null, "NORMAL", "", 12.0, "WEEK 24", "TREATMENT", "2014-03-18T14:12", 162], [811, "CDISCPILOT01", "LB", "CDISC004", 270, "CREAT", "Creatinine", "CHEMISTRY", "1.0", "mg/dL", "0.7", "1.4", "88.4", 88.39999999999998, "umol/L", 62.0, 124.0, "NORMAL", "", 12.0, "WEEK 24", "TREATMENT", "2014-03-18T14:12", 162], [812, "CDISCPILOT01", "LB", "CDISC004", 271, "EOS", "Eosinophils", "HEMATOLOGY", "0.25", "10^9/L", "0", "0.57", "0.25", 0.25, "10^9/L", 0.0, 0.57, "NORMAL", "", 12.0, "WEEK 24", "TREATMENT", "2014-03-18T14:12", 162], [813, "CDISCPILOT01", "LB", "CDISC004", 272, "GGT", "Gamma Glutamyl Transferase", "CHEMISTRY", "9", "U/L", "5", "50", "9", 9.0, "U/L", 5.0, 50.0, "NORMAL", "", 12.0, "WEEK 24", "TREATMENT", "2014-03-18T14:12", 162], [814, "CDISCPILOT01", "LB", "CDISC004", 273, "GLUC", "Glucose", "CHEMISTRY", "87", "mg/dL", "50", "250", "4.82937", 4.82937, "mmol/L", 2.8, 13.9, "NORMAL", "", 12.0, "WEEK 24", "TREATMENT", "2014-03-18T14:12", 162], [815, "CDISCPILOT01", "LB", "CDISC004", 274, "HCT", "Hematocrit", "HEMATOLOGY", "41.0", "%", "34", "48", "0.41", 0.41, "", 0.33999999999999997, 0.48, "NORMAL", "", 12.0, "WEEK 24", "TREATMENT", "2014-03-18T14:12", 162], [816, "CDISCPILOT01", "LB", "CDISC004", 275, "HGB", "Hemoglobin", "HEMATOLOGY", "13.8", "g/dL", "11.5", "15.8", "8.56428", 8.564279999999998, "mmol/L", 7.14, 9.809999999999999, "NORMAL", "", 12.0, "WEEK 24", "TREATMENT", "2014-03-18T14:12", 162], [817, "CDISCPILOT01", "LB", "CDISC004", 276, "K", "Potassium", "CHEMISTRY", "4.9", "mEq/L", "3.4", "5.4", "4.9", 4.8999999999999995, "mmol/L", 3.4, 5.3999999999999995, "NORMAL", "", 12.0, "WEEK 24", "TREATMENT", "2014-03-18T14:12", 162], [818, "CDISCPILOT01", "LB", "CDISC004", 277, "KETONES", "Ketones", "URINALYSIS", "0", "", "", "", "0", 0.0, "", null, null, "NORMAL", "", 12.0, "WEEK 24", "TREATMENT", "2014-03-18T14:12", 162], [819, "CDISCPILOT01", "LB", "CDISC004", 278, "LYM", "Lymphocytes", "HEMATOLOGY", "1.53", "10^9/L", "0.8", "3", "1.53", 1.53, "10^9/L", 0.8, 3.0, "NORMAL", "", 12.0, "WEEK 24", "TREATMENT", "2014-03-18T14:12", 162], [820, "CDISCPILOT01", "LB", "CDISC004", 279, "MCH", "Ery. Mean Corpuscular Hemoglobin", "HEMATOLOGY", "29", "pg", "26", "34", "1.79974", 1.79974, "fmol", 1.6, 2.1, "NORMAL", "", 12.0, "WEEK 24", "TREATMENT", "2014-03-18T14:12", 162], [821, "CDISCPILOT01", "LB", "CDISC004", 280, "MCHC", "Ery. Mean Corpuscular HGB Concentration", "HEMATOLOGY", "34", "g/dL", "31", "38", "21.1004", 21.1004, "mmol/L", 19.0, 24.0, "NORMAL", "", 12.0, "WEEK 24", "TREATMENT", "2014-03-18T14:12", 162], [822, "CDISCPILOT01", "LB", "CDISC004", 281, "MCV", "Ery. Mean Corpuscular Volume", "HEMATOLOGY", "85", "fL", "80", "100", "85", 85.0, "fL", 80.0, 100.0, "NORMAL", "", 12.0, "WEEK 24", "TREATMENT", "2014-03-18T14:12", 162], [823, "CDISCPILOT01", "LB", "CDISC004", 282, "MONO", "Monocytes", "HEMATOLOGY", "0.47", "10^9/L", "0.12", "0.92", "0.47", 0.47, "10^9/L", 0.12, 0.92, "NORMAL", "", 12.0, "WEEK 24", "TREATMENT", "2014-03-18T14:12", 162], [824, "CDISCPILOT01", "LB", "CDISC004", 283, "SODIUM", "Sodium", "CHEMISTRY", "142", "mEq/L", "135", "145", "142", 142.0, "mmol/L", 135.0, 145.0, "NORMAL", "", 12.0, "WEEK 24", "TREATMENT", "2014-03-18T14:12", 162], [825, "CDISCPILOT01", "LB", "CDISC004", 284, "PH", "pH", "URINALYSIS", "5", "", "5", "8", "5", 5.0, "", 5.0, 8.0, "NORMAL", "", 12.0, "WEEK 24", "TREATMENT", "2014-03-18T14:12", 162], [826, "CDISCPILOT01", "LB", "CDISC004", 285, "PHOS", "Phosphate", "CHEMISTRY", "3.9", "mg/dL", "2.2", "5.1", "1.25931", 1.25931, "mmol/L", 0.71, 1.65, "NORMAL", "", 12.0, "WEEK 24", "TREATMENT", "2014-03-18T14:12", 162], [827, "CDISCPILOT01", "LB", "CDISC004", 286, "PLAT", "Platelets", "HEMATOLOGY", "361", "10^9/L", "130", "394", "361", 361.0, "10^9/L", 130.0, 394.0, "NORMAL", "", 12.0, "WEEK 24", "TREATMENT", "2014-03-18T14:12", 162], [828, "CDISCPILOT01", "LB", "CDISC004", 287, "PROT", "Protein", "CHEMISTRY", "7.4", "g/dL", "6", "8", "74", 74.0, "g/L", 60.0, 80.0, "NORMAL", "", 12.0, "WEEK 24", "TREATMENT", "2014-03-18T14:12", 162], [829, "CDISCPILOT01", "LB", "CDISC004", 288, "RBC", "Erythrocytes", "HEMATOLOGY", "4.80", "10^12/L", "3.9", "5.5", "4.8", 4.8, "10^12/L", 3.9, 5.5, "NORMAL", "", 12.0, "WEEK 24", "TREATMENT", "2014-03-18T14:12", 162], [830, "CDISCPILOT01", "LB", "CDISC004", 289, "SPGRAV", "Specific Gravity", "URINALYSIS", "1.007", "", "1.006", "1.03", "1.007", 1.007, "", 1.006, 1.03, "NORMAL", "", 12.0, "WEEK 24", "TREATMENT", "2014-03-18T14:12", 162], [831, "CDISCPILOT01", "LB", "CDISC004", 290, "URATE", "Urate", "CHEMISTRY", "4.7", "mg/dL", "2.5", "7.5", "279.556", 279.556, "umol/L", 149.0, 446.0, "NORMAL", "", 12.0, "WEEK 24", "TREATMENT", "2014-03-18T14:12", 162], [832, "CDISCPILOT01", "LB", "CDISC004", 291, "UROBIL", "Urobilinogen", "URINALYSIS", "0", "", "", "", "0", 0.0, "", null, null, "NORMAL", "", 12.0, "WEEK 24", "TREATMENT", "2014-03-18T14:12", 162], [833, "CDISCPILOT01", "LB", "CDISC004", 292, "WBC", "Leukocytes", "HEMATOLOGY", "7.66", "10^9/L", "3.8", "10.7", "7.66", 7.66, "10^9/L", 3.8, 10.7, "NORMAL", "", 12.0, "WEEK 24", "TREATMENT", "2014-03-18T14:12", 162], [834, "CDISCPILOT01", "LB", "CDISC005", 1, "ALB", "Albumin", "CHEMISTRY", "3.9", "g/dL", "3.5", "4.6", "39", 39.0, "g/L", 35.0, 46.0, "NORMAL", "Y", 1.0, "SCREENING 1", "SCREENING", "2013-01-22T11:43", -13], [835, "CDISCPILOT01", "LB", "CDISC005", 2, "ALP", "Alkaline Phosphatase", "CHEMISTRY", "66", "U/L", "35", "115", "66", 66.0, "U/L", 35.0, 115.0, "NORMAL", "Y", 1.0, "SCREENING 1", "SCREENING", "2013-01-22T11:43", -13], [836, "CDISCPILOT01", "LB", "CDISC005", 3, "ALT", "Alanine Aminotransferase", "CHEMISTRY", "17", "U/L", "6", "32", "17", 17.0, "U/L", 6.0, 32.0, "NORMAL", "Y", 1.0, "SCREENING 1", "SCREENING", "2013-01-22T11:43", -13], [837, "CDISCPILOT01", "LB", "CDISC005", 4, "AST", "Aspartate Aminotransferase", "CHEMISTRY", "20", "U/L", "9", "34", "20", 20.0, "U/L", 9.0, 34.0, "NORMAL", "Y", 1.0, "SCREENING 1", "SCREENING", "2013-01-22T11:43", -13], [838, "CDISCPILOT01", "LB", "CDISC005", 5, "BASO", "Basophils", "HEMATOLOGY", "0.04", "10^9/L", "0", "0.2", "0.04", 0.039999999999999994, "10^9/L", 0.0, 0.2, "NORMAL", "Y", 1.0, "SCREENING 1", "SCREENING", "2013-01-22T11:43", -13], [839, "CDISCPILOT01", "LB", "CDISC005", 6, "BILI", "Bilirubin", "CHEMISTRY", "0.5", "mg/dL", "0.2", "1.2", "8.55", 8.549999999999999, "umol/L", 3.0, 21.0, "NORMAL", "Y", 1.0, "SCREENING 1", "SCREENING", "2013-01-22T11:43", -13], [840, "CDISCPILOT01", "LB", "CDISC005", 7, "UREAN", "Urea Nitrogen", "CHEMISTRY", "8", "mg/dL", "4", "24", "2.856", 2.856, "mmol/L", 1.4, 8.6, "NORMAL", "Y", 1.0, "SCREENING 1", "SCREENING", "2013-01-22T11:43", -13], [841, "CDISCPILOT01", "LB", "CDISC005", 8, "CA", "Calcium", "CHEMISTRY", "8.9", "mg/dL", "8.4", "10.3", "2.22055", 2.22055, "mmol/L", 2.1, 2.57, "NORMAL", "Y", 1.0, "SCREENING 1", "SCREENING", "2013-01-22T11:43", -13], [842, "CDISCPILOT01", "LB", "CDISC005", 9, "CHOL", "Cholesterol", "CHEMISTRY", "213", "mg/dL", "156", "300", "5.50818", 5.508179999999999, "mmol/L", 4.029999999999999, 7.76, "NORMAL", "Y", 1.0, "SCREENING 1", "SCREENING", "2013-01-22T11:43", -13], [843, "CDISCPILOT01", "LB", "CDISC005", 10, "CK", "Creatine Kinase", "CHEMISTRY", "96", "U/L", "21", "169", "96", 96.0, "U/L", 21.0, 169.0, "NORMAL", "Y", 1.0, "SCREENING 1", "SCREENING", "2013-01-22T11:43", -13], [844, "CDISCPILOT01", "LB", "CDISC005", 11, "CL", "Chloride", "CHEMISTRY", "107", "mEq/L", "94", "112", "107", 107.0, "mmol/L", 94.0, 112.0, "NORMAL", "Y", 1.0, "SCREENING 1", "SCREENING", "2013-01-22T11:43", -13], [845, "CDISCPILOT01", "LB", "CDISC005", 12, "COLOR", "Color", "URINALYSIS", "NORMAL", "", "", "", "NORMAL", null, "", null, null, "NORMAL", "Y", 1.0, "SCREENING 1", "SCREENING", "2013-01-22T11:43", -13], [846, "CDISCPILOT01", "LB", "CDISC005", 13, "CREAT", "Creatinine", "CHEMISTRY", "0.9", "mg/dL", "0.7", "1.4", "79.56", 79.55999999999999, "umol/L", 62.0, 124.0, "NORMAL", "Y", 1.0, "SCREENING 1", "SCREENING", "2013-01-22T11:43", -13], [847, "CDISCPILOT01", "LB", "CDISC005", 14, "EOS", "Eosinophils", "HEMATOLOGY", "0.07", "10^9/L", "0", "0.57", "0.07", 0.07, "10^9/L", 0.0, 0.57, "NORMAL", "Y", 1.0, "SCREENING 1", "SCREENING", "2013-01-22T11:43", -13], [848, "CDISCPILOT01", "LB", "CDISC005", 15, "GGT", "Gamma Glutamyl Transferase", "CHEMISTRY", "11", "U/L", "5", "50", "11", 11.0, "U/L", 5.0, 50.0, "NORMAL", "Y", 1.0, "SCREENING 1", "SCREENING", "2013-01-22T11:43", -13], [849, "CDISCPILOT01", "LB", "CDISC005", 16, "GLUC", "Glucose", "CHEMISTRY", "95", "mg/dL", "50", "250", "5.27345", 5.2734499999999995, "mmol/L", 2.8, 13.9, "NORMAL", "Y", 1.0, "SCREENING 1", "SCREENING", "2013-01-22T11:43", -13], [850, "CDISCPILOT01", "LB", "CDISC005", 17, "HCT", "Hematocrit", "HEMATOLOGY", "40.0", "%", "34", "48", "0.4", 0.4, "", 0.33999999999999997, 0.48, "NORMAL", "Y", 1.0, "SCREENING 1", "SCREENING", "2013-01-22T11:43", -13], [851, "CDISCPILOT01", "LB", "CDISC005", 18, "HGB", "Hemoglobin", "HEMATOLOGY", "13.7", "g/dL", "11.5", "15.8", "8.50222", 8.50222, "mmol/L", 7.14, 9.809999999999999, "NORMAL", "Y", 1.0, "SCREENING 1", "SCREENING", "2013-01-22T11:43", -13], [852, "CDISCPILOT01", "LB", "CDISC005", 19, "K", "Potassium", "CHEMISTRY", "4.3", "mEq/L", "3.4", "5.4", "4.3", 4.3, "mmol/L", 3.4, 5.3999999999999995, "NORMAL", "Y", 1.0, "SCREENING 1", "SCREENING", "2013-01-22T11:43", -13], [853, "CDISCPILOT01", "LB", "CDISC005", 20, "KETONES", "Ketones", "URINALYSIS", "0", "", "", "", "0", 0.0, "", null, null, "NORMAL", "Y", 1.0, "SCREENING 1", "SCREENING", "2013-01-22T11:43", -13], [854, "CDISCPILOT01", "LB", "CDISC005", 21, "LYM", "Lymphocytes", "HEMATOLOGY", "1.77", "10^9/L", "0.8", "3", "1.77", 1.77, "10^9/L", 0.8, 3.0, "NORMAL", "Y", 1.0, "SCREENING 1", "SCREENING", "2013-01-22T11:43", -13], [855, "CDISCPILOT01", "LB", "CDISC005", 22, "MCH", "Ery. Mean Corpuscular Hemoglobin", "HEMATOLOGY", "32", "pg", "26", "34", "1.98592", 1.98592, "fmol", 1.6, 2.1, "NORMAL", "Y", 1.0, "SCREENING 1", "SCREENING", "2013-01-22T11:43", -13], [856, "CDISCPILOT01", "LB", "CDISC005", 23, "MCHC", "Ery. Mean Corpuscular HGB Concentration", "HEMATOLOGY", "34", "g/dL", "31", "38", "21.1004", 21.1004, "mmol/L", 19.0, 24.0, "NORMAL", "Y", 1.0, "SCREENING 1", "SCREENING", "2013-01-22T11:43", -13], [857, "CDISCPILOT01", "LB", "CDISC005", 24, "MCV", "Ery. Mean Corpuscular Volume", "HEMATOLOGY", "94", "fL", "80", "100", "94", 94.0, "fL", 80.0, 100.0, "NORMAL", "Y", 1.0, "SCREENING 1", "SCREENING", "2013-01-22T11:43", -13], [858, "CDISCPILOT01", "LB", "CDISC005", 25, "MONO", "Monocytes", "HEMATOLOGY", "0.26", "10^9/L", "0.12", "0.92", "0.26", 0.25999999999999995, "10^9/L", 0.12, 0.92, "NORMAL", "Y", 1.0, "SCREENING 1", "SCREENING", "2013-01-22T11:43", -13], [859, "CDISCPILOT01", "LB", "CDISC005", 26, "SODIUM", "Sodium", "CHEMISTRY", "143", "mEq/L", "135", "145", "143", 143.0, "mmol/L", 135.0, 145.0, "NORMAL", "Y", 1.0, "SCREENING 1", "SCREENING", "2013-01-22T11:43", -13], [860, "CDISCPILOT01", "LB", "CDISC005", 27, "PH", "pH", "URINALYSIS", "6", "", "5", "8", "6", 6.0, "", 5.0, 8.0, "NORMAL", "Y", 1.0, "SCREENING 1", "SCREENING", "2013-01-22T11:43", -13], [861, "CDISCPILOT01", "LB", "CDISC005", 28, "PHOS", "Phosphate", "CHEMISTRY", "4.0", "mg/dL", "2.2", "5.1", "1.2916", 1.2916, "mmol/L", 0.71, 1.65, "NORMAL", "Y", 1.0, "SCREENING 1", "SCREENING", "2013-01-22T11:43", -13], [862, "CDISCPILOT01", "LB", "CDISC005", 29, "PLAT", "Platelets", "HEMATOLOGY", "341", "10^9/L", "130", "394", "341", 341.0, "10^9/L", 130.0, 394.0, "NORMAL", "Y", 1.0, "SCREENING 1", "SCREENING", "2013-01-22T11:43", -13], [863, "CDISCPILOT01", "LB", "CDISC005", 30, "PROT", "Protein", "CHEMISTRY", "6.8", "g/dL", "6", "8", "68", 68.0, "g/L", 60.0, 80.0, "NORMAL", "Y", 1.0, "SCREENING 1", "SCREENING", "2013-01-22T11:43", -13], [864, "CDISCPILOT01", "LB", "CDISC005", 31, "RBC", "Erythrocytes", "HEMATOLOGY", "4.30", "10^12/L", "3.9", "5.5", "4.3", 4.3, "10^12/L", 3.9, 5.5, "NORMAL", "Y", 1.0, "SCREENING 1", "SCREENING", "2013-01-22T11:43", -13], [865, "CDISCPILOT01", "LB", "CDISC005", 32, "SPGRAV", "Specific Gravity", "URINALYSIS", "1.011", "", "1.006", "1.03", "1.011", 1.011, "", 1.006, 1.03, "NORMAL", "Y", 1.0, "SCREENING 1", "SCREENING", "2013-01-22T11:43", -13], [866, "CDISCPILOT01", "LB", "CDISC005", 33, "TSH", "Thyrotropin", "OTHER", "3.66", "mIU/L", ".32", "5", "3.66", 3.66, "mU/L", 0.32, 5.0, "NORMAL", "Y", 1.0, "SCREENING 1", "SCREENING", "2013-01-22T11:43", -13], [867, "CDISCPILOT01", "LB", "CDISC005", 34, "URATE", "Urate", "CHEMISTRY", "3.3", "mg/dL", "2.5", "7.5", "196.284", 196.284, "umol/L", 149.0, 446.0, "NORMAL", "Y", 1.0, "SCREENING 1", "SCREENING", "2013-01-22T11:43", -13], [868, "CDISCPILOT01", "LB", "CDISC005", 35, "UROBIL", "Urobilinogen", "URINALYSIS", "0", "", "", "", "0", 0.0, "", null, null, "NORMAL", "Y", 1.0, "SCREENING 1", "SCREENING", "2013-01-22T11:43", -13], [869, "CDISCPILOT01", "LB", "CDISC005", 36, "VITB12", "Vitamin B12", "OTHER", "555", "ng/L", "200", "900", "409.479", 409.479, "pmol/L", 148.0, 664.0, "NORMAL", "Y", 1.0, "SCREENING 1", "SCREENING", "2013-01-22T11:43", -13], [870, "CDISCPILOT01", "LB", "CDISC005", 37, "WBC", "Leukocytes", "HEMATOLOGY", "5.08", "10^9/L", "3.8", "10.7", "5.08", 5.08, "10^9/L", 3.8, 10.7, "NORMAL", "Y", 1.0, "SCREENING 1", "SCREENING", "2013-01-22T11:43", -13], [871, "CDISCPILOT01", "LB", "CDISC005", 38, "ALB", "Albumin", "CHEMISTRY", "3.8", "g/dL", "3.5", "4.6", "38", 38.0, "g/L", 35.0, 46.0, "NORMAL", "", 4.0, "WEEK 2", "TREATMENT", "2013-02-19T09:40", 16], [872, "CDISCPILOT01", "LB", "CDISC005", 39, "ALP", "Alkaline Phosphatase", "CHEMISTRY", "66", "U/L", "35", "115", "66", 66.0, "U/L", 35.0, 115.0, "NORMAL", "", 4.0, "WEEK 2", "TREATMENT", "2013-02-19T09:40", 16], [873, "CDISCPILOT01", "LB", "CDISC005", 40, "ALT", "Alanine Aminotransferase", "CHEMISTRY", "17", "U/L", "6", "32", "17", 17.0, "U/L", 6.0, 32.0, "NORMAL", "", 4.0, "WEEK 2", "TREATMENT", "2013-02-19T09:40", 16], [874, "CDISCPILOT01", "LB", "CDISC005", 41, "AST", "Aspartate Aminotransferase", "CHEMISTRY", "20", "U/L", "9", "34", "20", 20.0, "U/L", 9.0, 34.0, "NORMAL", "", 4.0, "WEEK 2", "TREATMENT", "2013-02-19T09:40", 16], [875, "CDISCPILOT01", "LB", "CDISC005", 42, "BASO", "Basophils", "HEMATOLOGY", "0.03", "10^9/L", "0", "0.2", "0.03", 0.03, "10^9/L", 0.0, 0.2, "NORMAL", "", 4.0, "WEEK 2", "TREATMENT", "2013-02-19T09:40", 16], [876, "CDISCPILOT01", "LB", "CDISC005", 43, "BILI", "Bilirubin", "CHEMISTRY", "0.5", "mg/dL", "0.2", "1.2", "8.55", 8.549999999999999, "umol/L", 3.0, 21.0, "NORMAL", "", 4.0, "WEEK 2", "TREATMENT", "2013-02-19T09:40", 16], [877, "CDISCPILOT01", "LB", "CDISC005", 44, "UREAN", "Urea Nitrogen", "CHEMISTRY", "12", "mg/dL", "4", "24", "4.284", 4.284, "mmol/L", 1.4, 8.6, "NORMAL", "", 4.0, "WEEK 2", "TREATMENT", "2013-02-19T09:40", 16], [878, "CDISCPILOT01", "LB", "CDISC005", 45, "CA", "Calcium", "CHEMISTRY", "9.4", "mg/dL", "8.4", "10.3", "2.3453", 2.3453, "mmol/L", 2.1, 2.57, "NORMAL", "", 4.0, "WEEK 2", "TREATMENT", "2013-02-19T09:40", 16], [879, "CDISCPILOT01", "LB", "CDISC005", 46, "CHOL", "Cholesterol", "CHEMISTRY", "203", "mg/dL", "156", "300", "5.24958", 5.24958, "mmol/L", 4.029999999999999, 7.76, "NORMAL", "", 4.0, "WEEK 2", "TREATMENT", "2013-02-19T09:40", 16], [880, "CDISCPILOT01", "LB", "CDISC005", 47, "CK", "Creatine Kinase", "CHEMISTRY", "75", "U/L", "21", "169", "75", 75.0, "U/L", 21.0, 169.0, "NORMAL", "", 4.0, "WEEK 2", "TREATMENT", "2013-02-19T09:40", 16], [881, "CDISCPILOT01", "LB", "CDISC005", 48, "CL", "Chloride", "CHEMISTRY", "106", "mEq/L", "94", "112", "106", 106.0, "mmol/L", 94.0, 112.0, "NORMAL", "", 4.0, "WEEK 2", "TREATMENT", "2013-02-19T09:40", 16], [882, "CDISCPILOT01", "LB", "CDISC005", 49, "COLOR", "Color", "URINALYSIS", "NORMAL", "", "", "", "NORMAL", null, "", null, null, "NORMAL", "", 4.0, "WEEK 2", "TREATMENT", "2013-02-19T09:40", 16], [883, "CDISCPILOT01", "LB", "CDISC005", 50, "CREAT", "Creatinine", "CHEMISTRY", "0.9", "mg/dL", "0.7", "1.4", "79.56", 79.55999999999999, "umol/L", 62.0, 124.0, "NORMAL", "", 4.0, "WEEK 2", "TREATMENT", "2013-02-19T09:40", 16], [884, "CDISCPILOT01", "LB", "CDISC005", 51, "EOS", "Eosinophils", "HEMATOLOGY", "0.10", "10^9/L", "0", "0.57", "0.1", 0.1, "10^9/L", 0.0, 0.57, "NORMAL", "", 4.0, "WEEK 2", "TREATMENT", "2013-02-19T09:40", 16], [885, "CDISCPILOT01", "LB", "CDISC005", 52, "GGT", "Gamma Glutamyl Transferase", "CHEMISTRY", "14", "U/L", "5", "50", "14", 14.0, "U/L", 5.0, 50.0, "NORMAL", "", 4.0, "WEEK 2", "TREATMENT", "2013-02-19T09:40", 16], [886, "CDISCPILOT01", "LB", "CDISC005", 53, "GLUC", "Glucose", "CHEMISTRY", "87", "mg/dL", "50", "250", "4.82937", 4.82937, "mmol/L", 2.8, 13.9, "NORMAL", "", 4.0, "WEEK 2", "TREATMENT", "2013-02-19T09:40", 16], [887, "CDISCPILOT01", "LB", "CDISC005", 54, "HCT", "Hematocrit", "HEMATOLOGY", "40.0", "%", "34", "48", "0.4", 0.4, "", 0.33999999999999997, 0.48, "NORMAL", "", 4.0, "WEEK 2", "TREATMENT", "2013-02-19T09:40", 16], [888, "CDISCPILOT01", "LB", "CDISC005", 55, "HGB", "Hemoglobin", "HEMATOLOGY", "12.9", "g/dL", "11.5", "15.8", "8.00574", 8.00574, "mmol/L", 7.14, 9.809999999999999, "NORMAL", "", 4.0, "WEEK 2", "TREATMENT", "2013-02-19T09:40", 16], [889, "CDISCPILOT01", "LB", "CDISC005", 56, "K", "Potassium", "CHEMISTRY", "4.8", "mEq/L", "3.4", "5.4", "4.8", 4.8, "mmol/L", 3.4, 5.3999999999999995, "NORMAL", "", 4.0, "WEEK 2", "TREATMENT", "2013-02-19T09:40", 16], [890, "CDISCPILOT01", "LB", "CDISC005", 57, "KETONES", "Ketones", "URINALYSIS", "0", "", "", "", "0", 0.0, "", null, null, "NORMAL", "", 4.0, "WEEK 2", "TREATMENT", "2013-02-19T09:40", 16], [891, "CDISCPILOT01", "LB", "CDISC005", 58, "LYM", "Lymphocytes", "HEMATOLOGY", "1.28", "10^9/L", "0.8", "3", "1.28", 1.28, "10^9/L", 0.8, 3.0, "NORMAL", "", 4.0, "WEEK 2", "TREATMENT", "2013-02-19T09:40", 16], [892, "CDISCPILOT01", "LB", "CDISC005", 59, "MCH", "Ery. Mean Corpuscular Hemoglobin", "HEMATOLOGY", "30", "pg", "26", "34", "1.8618", 1.8618, "fmol", 1.6, 2.1, "NORMAL", "", 4.0, "WEEK 2", "TREATMENT", "2013-02-19T09:40", 16], [893, "CDISCPILOT01", "LB", "CDISC005", 60, "MCHC", "Ery. Mean Corpuscular HGB Concentration", "HEMATOLOGY", "32", "g/dL", "31", "38", "19.8592", 19.8592, "mmol/L", 19.0, 24.0, "NORMAL", "", 4.0, "WEEK 2", "TREATMENT", "2013-02-19T09:40", 16], [894, "CDISCPILOT01", "LB", "CDISC005", 61, "MCV", "Ery. Mean Corpuscular Volume", "HEMATOLOGY", "92", "fL", "80", "100", "92", 92.0, "fL", 80.0, 100.0, "NORMAL", "", 4.0, "WEEK 2", "TREATMENT", "2013-02-19T09:40", 16], [895, "CDISCPILOT01", "LB", "CDISC005", 62, "MONO", "Monocytes", "HEMATOLOGY", "0.31", "10^9/L", "0.12", "0.92", "0.31", 0.31, "10^9/L", 0.12, 0.92, "NORMAL", "", 4.0, "WEEK 2", "TREATMENT", "2013-02-19T09:40", 16], [896, "CDISCPILOT01", "LB", "CDISC005", 63, "SODIUM", "Sodium", "CHEMISTRY", "139", "mEq/L", "135", "145", "139", 139.0, "mmol/L", 135.0, 145.0, "NORMAL", "", 4.0, "WEEK 2", "TREATMENT", "2013-02-19T09:40", 16], [897, "CDISCPILOT01", "LB", "CDISC005", 64, "PH", "pH", "URINALYSIS", "6", "", "5", "8", "6", 6.0, "", 5.0, 8.0, "NORMAL", "", 4.0, "WEEK 2", "TREATMENT", "2013-02-19T09:40", 16], [898, "CDISCPILOT01", "LB", "CDISC005", 65, "PHOS", "Phosphate", "CHEMISTRY", "3.8", "mg/dL", "2.2", "5.1", "1.22702", 1.22702, "mmol/L", 0.71, 1.65, "NORMAL", "", 4.0, "WEEK 2", "TREATMENT", "2013-02-19T09:40", 16], [899, "CDISCPILOT01", "LB", "CDISC005", 66, "PLAT", "Platelets", "HEMATOLOGY", "341", "10^9/L", "130", "394", "341", 341.0, "10^9/L", 130.0, 394.0, "NORMAL", "", 4.0, "WEEK 2", "TREATMENT", "2013-02-19T09:40", 16], [900, "CDISCPILOT01", "LB", "CDISC005", 67, "PROT", "Protein", "CHEMISTRY", "6.6", "g/dL", "6", "8", "66", 66.0, "g/L", 60.0, 80.0, "NORMAL", "", 4.0, "WEEK 2", "TREATMENT", "2013-02-19T09:40", 16], [901, "CDISCPILOT01", "LB", "CDISC005", 68, "RBC", "Erythrocytes", "HEMATOLOGY", "4.40", "10^12/L", "3.9", "5.5", "4.4", 4.3999999999999995, "10^12/L", 3.9, 5.5, "NORMAL", "", 4.0, "WEEK 2", "TREATMENT", "2013-02-19T09:40", 16], [902, "CDISCPILOT01", "LB", "CDISC005", 69, "SPGRAV", "Specific Gravity", "URINALYSIS", "1.016", "", "1.006", "1.03", "1.016", 1.016, "", 1.006, 1.03, "NORMAL", "", 4.0, "WEEK 2", "TREATMENT", "2013-02-19T09:40", 16], [903, "CDISCPILOT01", "LB", "CDISC005", 70, "URATE", "Urate", "CHEMISTRY", "3.5", "mg/dL", "2.5", "7.5", "208.18", 208.18, "umol/L", 149.0, 446.0, "NORMAL", "", 4.0, "WEEK 2", "TREATMENT", "2013-02-19T09:40", 16], [904, "CDISCPILOT01", "LB", "CDISC005", 71, "UROBIL", "Urobilinogen", "URINALYSIS", "0", "", "", "", "0", 0.0, "", null, null, "NORMAL", "", 4.0, "WEEK 2", "TREATMENT", "2013-02-19T09:40", 16], [905, "CDISCPILOT01", "LB", "CDISC005", 72, "WBC", "Leukocytes", "HEMATOLOGY", "6.73", "10^9/L", "3.8", "10.7", "6.73", 6.7299999999999995, "10^9/L", 3.8, 10.7, "NORMAL", "", 4.0, "WEEK 2", "TREATMENT", "2013-02-19T09:40", 16], [906, "CDISCPILOT01", "LB", "CDISC005", 73, "ALB", "Albumin", "CHEMISTRY", "4.0", "g/dL", "3.5", "4.6", "40", 40.0, "g/L", 35.0, 46.0, "NORMAL", "", 5.0, "WEEK 4", "TREATMENT", "2013-03-12T11:50", 37], [907, "CDISCPILOT01", "LB", "CDISC005", 74, "ALP", "Alkaline Phosphatase", "CHEMISTRY", "61", "U/L", "35", "115", "61", 61.0,